participant,condition,block,trial,red,green,blue,response,rt,duration,gender,age,ease,handed,glasses,colorblind,language,language_what,hypothesis,difficulty_over_time,did_freq_change,freq1,freq2,freq3
101,0,0,1,85,0,170,1,1.4147,2125,female,23,5,right,1,0,0,,Not sure,unsure,no response,50,50,50
101,0,0,2,54,0,201,2,0.22741,2125,female,23,5,right,1,0,0,,Not sure,unsure,no response,50,50,50
101,0,0,3,20,0,235,2,0.24942,2125,female,23,5,right,1,0,0,,Not sure,unsure,no response,50,50,50
101,0,0,4,51,0,204,2,0.00017758,2125,female,23,5,right,1,0,0,,Not sure,unsure,no response,50,50,50
101,0,0,5,72,0,183,1,0.3811,2125,female,23,5,right,1,0,0,,Not sure,unsure,no response,50,50,50
101,0,0,6,31,0,224,2,0.044686,2125,female,23,5,right,1,0,0,,Not sure,unsure,no response,50,50,50
101,0,0,7,21,0,234,2,0.066276,2125,female,23,5,right,1,0,0,,Not sure,unsure,no response,50,50,50
101,0,0,8,12,0,243,2,0.062535,2125,female,23,5,right,1,0,0,,Not sure,unsure,no response,50,50,50
101,0,0,9,66,0,189,1,0.16354,2125,female,23,5,right,1,0,0,,Not sure,unsure,no response,50,50,50
101,0,0,10,14,0,241,2,0.24417,2125,female,23,5,right,1,0,0,,Not sure,unsure,no response,50,50,50
101,0,1,11,18,0,237,2,0.57165,2125,female,23,5,right,1,0,0,,Not sure,unsure,no response,50,50,50
101,0,1,12,36,0,219,2,0.6669,2125,female,23,5,right,1,0,0,,Not sure,unsure,no response,50,50,50
101,0,1,13,71,0,184,1,0.60602,2125,female,23,5,right,1,0,0,,Not sure,unsure,no response,50,50,50
101,0,1,14,46,0,209,2,0.55578,2125,female,23,5,right,1,0,0,,Not sure,unsure,no response,50,50,50
101,0,1,15,80,0,175,1,0.73182,2125,female,23,5,right,1,0,0,,Not sure,unsure,no response,50,50,50
101,0,1,16,23,0,232,2,0.65289,2125,female,23,5,right,1,0,0,,Not sure,unsure,no response,50,50,50
101,0,1,17,62,0,193,1,0.70461,2125,female,23,5,right,1,0,0,,Not sure,unsure,no response,50,50,50
101,0,1,18,74,0,181,1,0.65825,2125,female,23,5,right,1,0,0,,Not sure,unsure,no response,50,50,50
101,0,1,19,5,0,250,2,0.62203,2125,female,23,5,right,1,0,0,,Not sure,unsure,no response,50,50,50
101,0,1,20,58,0,197,1,0.53128,2125,female,23,5,right,1,0,0,,Not sure,unsure,no response,50,50,50
101,0,1,21,44,0,211,2,0.6285,2125,female,23,5,right,1,0,0,,Not sure,unsure,no response,50,50,50
101,0,1,22,14,0,241,2,0.52184,2125,female,23,5,right,1,0,0,,Not sure,unsure,no response,50,50,50
101,0,1,23,50,0,205,2,0.67506,2125,female,23,5,right,1,0,0,,Not sure,unsure,no response,50,50,50
101,0,1,24,6,0,249,2,0.56625,2125,female,23,5,right,1,0,0,,Not sure,unsure,no response,50,50,50
101,0,1,25,72,0,183,1,0.44542,2125,female,23,5,right,1,0,0,,Not sure,unsure,no response,50,50,50
101,0,1,26,63,0,192,1,0.58631,2125,female,23,5,right,1,0,0,,Not sure,unsure,no response,50,50,50
101,0,1,27,87,0,168,1,0.50497,2125,female,23,5,right,1,0,0,,Not sure,unsure,no response,50,50,50
101,0,1,28,73,0,182,1,0.55496,2125,female,23,5,right,1,0,0,,Not sure,unsure,no response,50,50,50
101,0,1,29,89,0,166,1,0.52293,2125,female,23,5,right,1,0,0,,Not sure,unsure,no response,50,50,50
101,0,1,30,49,0,206,2,0.69228,2125,female,23,5,right,1,0,0,,Not sure,unsure,no response,50,50,50
101,0,1,31,53,0,202,2,0.58267,2125,female,23,5,right,1,0,0,,Not sure,unsure,no response,50,50,50
101,0,1,32,33,0,222,2,0.41402,2125,female,23,5,right,1,0,0,,Not sure,unsure,no response,50,50,50
101,0,1,33,60,0,195,2,0.48413,2125,female,23,5,right,1,0,0,,Not sure,unsure,no response,50,50,50
101,0,1,34,79,0,176,1,0.39092,2125,female,23,5,right,1,0,0,,Not sure,unsure,no response,50,50,50
101,0,1,35,59,0,196,2,0.43789,2125,female,23,5,right,1,0,0,,Not sure,unsure,no response,50,50,50
101,0,1,36,100,0,155,1,0.52277,2125,female,23,5,right,1,0,0,,Not sure,unsure,no response,50,50,50
101,0,1,37,20,0,235,2,0.34815,2125,female,23,5,right,1,0,0,,Not sure,unsure,no response,50,50,50
101,0,1,38,3,0,252,2,0.46918,2125,female,23,5,right,1,0,0,,Not sure,unsure,no response,50,50,50
101,0,1,39,77,0,178,1,0.40074,2125,female,23,5,right,1,0,0,,Not sure,unsure,no response,50,50,50
101,0,1,40,22,0,233,2,0.38291,2125,female,23,5,right,1,0,0,,Not sure,unsure,no response,50,50,50
101,0,1,41,57,0,198,2,0.64581,2125,female,23,5,right,1,0,0,,Not sure,unsure,no response,50,50,50
101,0,1,42,12,0,243,2,0.34633,2125,female,23,5,right,1,0,0,,Not sure,unsure,no response,50,50,50
101,0,1,43,31,0,224,2,0.40337,2125,female,23,5,right,1,0,0,,Not sure,unsure,no response,50,50,50
101,0,1,44,7,0,248,2,0.32159,2125,female,23,5,right,1,0,0,,Not sure,unsure,no response,50,50,50
101,0,1,45,47,0,208,2,0.33946,2125,female,23,5,right,1,0,0,,Not sure,unsure,no response,50,50,50
101,0,1,46,56,0,199,2,0.3725,2125,female,23,5,right,1,0,0,,Not sure,unsure,no response,50,50,50
101,0,1,47,61,0,194,2,0.31617,2125,female,23,5,right,1,0,0,,Not sure,unsure,no response,50,50,50
101,0,1,48,67,0,188,1,0.67777,2125,female,23,5,right,1,0,0,,Not sure,unsure,no response,50,50,50
101,0,1,49,32,0,223,2,0.32095,2125,female,23,5,right,1,0,0,,Not sure,unsure,no response,50,50,50
101,0,1,50,75,0,180,1,0.32261,2125,female,23,5,right,1,0,0,,Not sure,unsure,no response,50,50,50
101,0,1,51,28,0,227,2,0.32446,2125,female,23,5,right,1,0,0,,Not sure,unsure,no response,50,50,50
101,0,1,52,39,0,216,2,0.57402,2125,female,23,5,right,1,0,0,,Not sure,unsure,no response,50,50,50
101,0,1,53,92,0,163,1,1.3013,2125,female,23,5,right,1,0,0,,Not sure,unsure,no response,50,50,50
101,0,1,54,95,0,160,1,0.694,2125,female,23,5,right,1,0,0,,Not sure,unsure,no response,50,50,50
101,0,1,55,15,0,240,2,1.1202,2125,female,23,5,right,1,0,0,,Not sure,unsure,no response,50,50,50
101,0,1,56,55,0,200,2,0.51255,2125,female,23,5,right,1,0,0,,Not sure,unsure,no response,50,50,50
101,0,1,57,2,0,253,2,0.47462,2125,female,23,5,right,1,0,0,,Not sure,unsure,no response,50,50,50
101,0,1,58,30,0,225,2,0.54202,2125,female,23,5,right,1,0,0,,Not sure,unsure,no response,50,50,50
101,0,1,59,1,0,254,2,0.46271,2125,female,23,5,right,1,0,0,,Not sure,unsure,no response,50,50,50
101,0,1,60,76,0,179,1,0.44292,2125,female,23,5,right,1,0,0,,Not sure,unsure,no response,50,50,50
101,0,2,61,39,0,216,2,0.59138,2125,female,23,5,right,1,0,0,,Not sure,unsure,no response,50,50,50
101,0,2,62,65,0,190,1,0.59803,2125,female,23,5,right,1,0,0,,Not sure,unsure,no response,50,50,50
101,0,2,63,95,0,160,1,0.48454,2125,female,23,5,right,1,0,0,,Not sure,unsure,no response,50,50,50
101,0,2,64,89,0,166,1,0.51126,2125,female,23,5,right,1,0,0,,Not sure,unsure,no response,50,50,50
101,0,2,65,11,0,244,2,0.52933,2125,female,23,5,right,1,0,0,,Not sure,unsure,no response,50,50,50
101,0,2,66,56,0,199,2,0.48274,2125,female,23,5,right,1,0,0,,Not sure,unsure,no response,50,50,50
101,0,2,67,4,0,251,2,0.38145,2125,female,23,5,right,1,0,0,,Not sure,unsure,no response,50,50,50
101,0,2,68,63,0,192,2,0.45314,2125,female,23,5,right,1,0,0,,Not sure,unsure,no response,50,50,50
101,0,2,69,43,0,212,2,0.38532,2125,female,23,5,right,1,0,0,,Not sure,unsure,no response,50,50,50
101,0,2,70,75,0,180,1,0.36823,2125,female,23,5,right,1,0,0,,Not sure,unsure,no response,50,50,50
101,0,2,71,3,0,252,2,0.51187,2125,female,23,5,right,1,0,0,,Not sure,unsure,no response,50,50,50
101,0,2,72,36,0,219,2,0.43394,2125,female,23,5,right,1,0,0,,Not sure,unsure,no response,50,50,50
101,0,2,73,1,0,254,2,0.42277,2125,female,23,5,right,1,0,0,,Not sure,unsure,no response,50,50,50
101,0,2,74,69,0,186,1,0.42026,2125,female,23,5,right,1,0,0,,Not sure,unsure,no response,50,50,50
101,0,2,75,20,0,235,2,0.76199,2125,female,23,5,right,1,0,0,,Not sure,unsure,no response,50,50,50
101,0,2,76,53,0,202,2,0.52147,2125,female,23,5,right,1,0,0,,Not sure,unsure,no response,50,50,50
101,0,2,77,97,0,158,1,0.41089,2125,female,23,5,right,1,0,0,,Not sure,unsure,no response,50,50,50
101,0,2,78,99,0,156,1,0.49702,2125,female,23,5,right,1,0,0,,Not sure,unsure,no response,50,50,50
101,0,2,79,10,0,245,2,0.49192,2125,female,23,5,right,1,0,0,,Not sure,unsure,no response,50,50,50
101,0,2,80,96,0,159,1,0.3747,2125,female,23,5,right,1,0,0,,Not sure,unsure,no response,50,50,50
101,0,2,81,98,0,157,1,0.51025,2125,female,23,5,right,1,0,0,,Not sure,unsure,no response,50,50,50
101,0,2,82,47,0,208,2,0.41637,2125,female,23,5,right,1,0,0,,Not sure,unsure,no response,50,50,50
101,0,2,83,64,0,191,2,0.35804,2125,female,23,5,right,1,0,0,,Not sure,unsure,no response,50,50,50
101,0,2,84,18,0,237,2,0.3423,2125,female,23,5,right,1,0,0,,Not sure,unsure,no response,50,50,50
101,0,2,85,29,0,226,2,0.36738,2125,female,23,5,right,1,0,0,,Not sure,unsure,no response,50,50,50
101,0,2,86,8,0,247,2,0.32697,2125,female,23,5,right,1,0,0,,Not sure,unsure,no response,50,50,50
101,0,2,87,67,0,188,1,0.38472,2125,female,23,5,right,1,0,0,,Not sure,unsure,no response,50,50,50
101,0,2,88,91,0,164,1,0.38372,2125,female,23,5,right,1,0,0,,Not sure,unsure,no response,50,50,50
101,0,2,89,12,0,243,2,0.40659,2125,female,23,5,right,1,0,0,,Not sure,unsure,no response,50,50,50
101,0,2,90,49,0,206,2,0.39691,2125,female,23,5,right,1,0,0,,Not sure,unsure,no response,50,50,50
101,0,2,91,34,0,221,2,0.38774,2125,female,23,5,right,1,0,0,,Not sure,unsure,no response,50,50,50
101,0,2,92,44,0,211,2,0.34686,2125,female,23,5,right,1,0,0,,Not sure,unsure,no response,50,50,50
101,0,2,93,62,0,193,1,0.42783,2125,female,23,5,right,1,0,0,,Not sure,unsure,no response,50,50,50
101,0,2,94,74,0,181,1,0.3054,2125,female,23,5,right,1,0,0,,Not sure,unsure,no response,50,50,50
101,0,2,95,41,0,214,2,0.35584,2125,female,23,5,right,1,0,0,,Not sure,unsure,no response,50,50,50
101,0,2,96,24,0,231,2,0.33218,2125,female,23,5,right,1,0,0,,Not sure,unsure,no response,50,50,50
101,0,2,97,45,0,210,2,0.26985,2125,female,23,5,right,1,0,0,,Not sure,unsure,no response,50,50,50
101,0,2,98,54,0,201,1,0.5138,2125,female,23,5,right,1,0,0,,Not sure,unsure,no response,50,50,50
101,0,2,99,87,0,168,1,0.59591,2125,female,23,5,right,1,0,0,,Not sure,unsure,no response,50,50,50
101,0,2,100,15,0,240,2,0.34653,2125,female,23,5,right,1,0,0,,Not sure,unsure,no response,50,50,50
101,0,2,101,94,0,161,1,0.44345,2125,female,23,5,right,1,0,0,,Not sure,unsure,no response,50,50,50
101,0,2,102,17,0,238,2,0.46422,2125,female,23,5,right,1,0,0,,Not sure,unsure,no response,50,50,50
101,0,2,103,13,0,242,2,0.35647,2125,female,23,5,right,1,0,0,,Not sure,unsure,no response,50,50,50
101,0,2,104,90,0,165,1,0.39681,2125,female,23,5,right,1,0,0,,Not sure,unsure,no response,50,50,50
101,0,2,105,86,0,169,1,0.33178,2125,female,23,5,right,1,0,0,,Not sure,unsure,no response,50,50,50
101,0,2,106,42,0,213,2,0.38956,2125,female,23,5,right,1,0,0,,Not sure,unsure,no response,50,50,50
101,0,2,107,51,0,204,2,0.3644,2125,female,23,5,right,1,0,0,,Not sure,unsure,no response,50,50,50
101,0,2,108,57,0,198,2,0.37287,2125,female,23,5,right,1,0,0,,Not sure,unsure,no response,50,50,50
101,0,2,109,38,0,217,2,0.34052,2125,female,23,5,right,1,0,0,,Not sure,unsure,no response,50,50,50
101,0,2,110,84,0,171,1,0.42155,2125,female,23,5,right,1,0,0,,Not sure,unsure,no response,50,50,50
101,0,3,111,80,0,175,1,0.78781,2125,female,23,5,right,1,0,0,,Not sure,unsure,no response,50,50,50
101,0,3,112,47,0,208,2,0.61011,2125,female,23,5,right,1,0,0,,Not sure,unsure,no response,50,50,50
101,0,3,113,97,0,158,1,0.32009,2125,female,23,5,right,1,0,0,,Not sure,unsure,no response,50,50,50
101,0,3,114,24,0,231,2,0.46553,2125,female,23,5,right,1,0,0,,Not sure,unsure,no response,50,50,50
101,0,3,115,11,0,244,2,0.63778,2125,female,23,5,right,1,0,0,,Not sure,unsure,no response,50,50,50
101,0,3,116,16,0,239,2,0.53818,2125,female,23,5,right,1,0,0,,Not sure,unsure,no response,50,50,50
101,0,3,117,27,0,228,2,0.45106,2125,female,23,5,right,1,0,0,,Not sure,unsure,no response,50,50,50
101,0,3,118,69,0,186,1,0.36715,2125,female,23,5,right,1,0,0,,Not sure,unsure,no response,50,50,50
101,0,3,119,84,0,171,1,0.41479,2125,female,23,5,right,1,0,0,,Not sure,unsure,no response,50,50,50
101,0,3,120,85,0,170,1,0.34112,2125,female,23,5,right,1,0,0,,Not sure,unsure,no response,50,50,50
101,0,3,121,32,0,223,2,0.39814,2125,female,23,5,right,1,0,0,,Not sure,unsure,no response,50,50,50
101,0,3,122,83,0,172,1,0.34897,2125,female,23,5,right,1,0,0,,Not sure,unsure,no response,50,50,50
101,0,3,123,42,0,213,2,0.33336,2125,female,23,5,right,1,0,0,,Not sure,unsure,no response,50,50,50
101,0,3,124,51,0,204,2,0.3824,2125,female,23,5,right,1,0,0,,Not sure,unsure,no response,50,50,50
101,0,3,125,36,0,219,2,0.33334,2125,female,23,5,right,1,0,0,,Not sure,unsure,no response,50,50,50
101,0,3,126,33,0,222,2,0.35046,2125,female,23,5,right,1,0,0,,Not sure,unsure,no response,50,50,50
101,0,3,127,43,0,212,2,0.39088,2125,female,23,5,right,1,0,0,,Not sure,unsure,no response,50,50,50
101,0,3,128,26,0,229,2,0.33376,2125,female,23,5,right,1,0,0,,Not sure,unsure,no response,50,50,50
101,0,3,129,40,0,215,2,0.44676,2125,female,23,5,right,1,0,0,,Not sure,unsure,no response,50,50,50
101,0,3,130,99,0,156,1,0.41166,2125,female,23,5,right,1,0,0,,Not sure,unsure,no response,50,50,50
101,0,3,131,75,0,180,2,0.73796,2125,female,23,5,right,1,0,0,,Not sure,unsure,no response,50,50,50
101,0,3,132,35,0,220,2,0.33017,2125,female,23,5,right,1,0,0,,Not sure,unsure,no response,50,50,50
101,0,3,133,13,0,242,2,0.29211,2125,female,23,5,right,1,0,0,,Not sure,unsure,no response,50,50,50
101,0,3,134,57,0,198,2,0.39106,2125,female,23,5,right,1,0,0,,Not sure,unsure,no response,50,50,50
101,0,3,135,100,0,155,1,0.43004,2125,female,23,5,right,1,0,0,,Not sure,unsure,no response,50,50,50
101,0,3,136,54,0,201,2,0.4036,2125,female,23,5,right,1,0,0,,Not sure,unsure,no response,50,50,50
101,0,3,137,20,0,235,2,0.38586,2125,female,23,5,right,1,0,0,,Not sure,unsure,no response,50,50,50
101,0,3,138,7,0,248,2,0.39277,2125,female,23,5,right,1,0,0,,Not sure,unsure,no response,50,50,50
101,0,3,139,77,0,178,1,0.40776,2125,female,23,5,right,1,0,0,,Not sure,unsure,no response,50,50,50
101,0,3,140,19,0,236,2,0.31791,2125,female,23,5,right,1,0,0,,Not sure,unsure,no response,50,50,50
101,0,3,141,61,0,194,1,0.75971,2125,female,23,5,right,1,0,0,,Not sure,unsure,no response,50,50,50
101,0,3,142,88,0,167,1,0.44743,2125,female,23,5,right,1,0,0,,Not sure,unsure,no response,50,50,50
101,0,3,143,56,0,199,2,0.32413,2125,female,23,5,right,1,0,0,,Not sure,unsure,no response,50,50,50
101,0,3,144,6,0,249,2,0.34996,2125,female,23,5,right,1,0,0,,Not sure,unsure,no response,50,50,50
101,0,3,145,71,0,184,2,0.98231,2125,female,23,5,right,1,0,0,,Not sure,unsure,no response,50,50,50
101,0,3,146,68,0,187,2,0.4448,2125,female,23,5,right,1,0,0,,Not sure,unsure,no response,50,50,50
101,0,3,147,58,0,197,2,0.29756,2125,female,23,5,right,1,0,0,,Not sure,unsure,no response,50,50,50
101,0,3,148,87,0,168,1,0.30881,2125,female,23,5,right,1,0,0,,Not sure,unsure,no response,50,50,50
101,0,3,149,62,0,193,2,0.24724,2125,female,23,5,right,1,0,0,,Not sure,unsure,no response,50,50,50
101,0,3,150,89,0,166,1,0.28463,2125,female,23,5,right,1,0,0,,Not sure,unsure,no response,50,50,50
101,0,3,151,41,0,214,2,0.31164,2125,female,23,5,right,1,0,0,,Not sure,unsure,no response,50,50,50
101,0,3,152,8,0,247,2,0.29013,2125,female,23,5,right,1,0,0,,Not sure,unsure,no response,50,50,50
101,0,3,153,25,0,230,2,0.34114,2125,female,23,5,right,1,0,0,,Not sure,unsure,no response,50,50,50
101,0,3,154,86,0,169,1,0.26247,2125,female,23,5,right,1,0,0,,Not sure,unsure,no response,50,50,50
101,0,3,155,34,0,221,2,0.32287,2125,female,23,5,right,1,0,0,,Not sure,unsure,no response,50,50,50
101,0,3,156,93,0,162,1,0.30867,2125,female,23,5,right,1,0,0,,Not sure,unsure,no response,50,50,50
101,0,3,157,21,0,234,2,0.30296,2125,female,23,5,right,1,0,0,,Not sure,unsure,no response,50,50,50
101,0,3,158,38,0,217,2,0.34543,2125,female,23,5,right,1,0,0,,Not sure,unsure,no response,50,50,50
101,0,3,159,66,0,189,1,0.37061,2125,female,23,5,right,1,0,0,,Not sure,unsure,no response,50,50,50
101,0,3,160,31,0,224,2,0.28215,2125,female,23,5,right,1,0,0,,Not sure,unsure,no response,50,50,50
101,0,4,161,81,0,174,1,0.408,2125,female,23,5,right,1,0,0,,Not sure,unsure,no response,50,50,50
101,0,4,162,87,0,168,1,0.43027,2125,female,23,5,right,1,0,0,,Not sure,unsure,no response,50,50,50
101,0,4,163,77,0,178,1,0.37982,2125,female,23,5,right,1,0,0,,Not sure,unsure,no response,50,50,50
101,0,4,164,98,0,157,1,0.2915,2125,female,23,5,right,1,0,0,,Not sure,unsure,no response,50,50,50
101,0,4,165,65,0,190,1,0.84659,2125,female,23,5,right,1,0,0,,Not sure,unsure,no response,50,50,50
101,0,4,166,47,0,208,2,0.33082,2125,female,23,5,right,1,0,0,,Not sure,unsure,no response,50,50,50
101,0,4,167,12,0,243,2,0.41247,2125,female,23,5,right,1,0,0,,Not sure,unsure,no response,50,50,50
101,0,4,168,88,0,167,1,0.31473,2125,female,23,5,right,1,0,0,,Not sure,unsure,no response,50,50,50
101,0,4,169,76,0,179,1,0.40521,2125,female,23,5,right,1,0,0,,Not sure,unsure,no response,50,50,50
101,0,4,170,95,0,160,1,0.29939,2125,female,23,5,right,1,0,0,,Not sure,unsure,no response,50,50,50
101,0,4,171,48,0,207,2,0.31789,2125,female,23,5,right,1,0,0,,Not sure,unsure,no response,50,50,50
101,0,4,172,16,0,239,2,0.34362,2125,female,23,5,right,1,0,0,,Not sure,unsure,no response,50,50,50
101,0,4,173,21,0,234,2,0.36073,2125,female,23,5,right,1,0,0,,Not sure,unsure,no response,50,50,50
101,0,4,174,19,0,236,2,0.29701,2125,female,23,5,right,1,0,0,,Not sure,unsure,no response,50,50,50
101,0,4,175,96,0,159,1,0.34805,2125,female,23,5,right,1,0,0,,Not sure,unsure,no response,50,50,50
101,0,4,176,43,0,212,2,0.29329,2125,female,23,5,right,1,0,0,,Not sure,unsure,no response,50,50,50
101,0,4,177,72,0,183,1,0.39235,2125,female,23,5,right,1,0,0,,Not sure,unsure,no response,50,50,50
101,0,4,178,34,0,221,2,0.30332,2125,female,23,5,right,1,0,0,,Not sure,unsure,no response,50,50,50
101,0,4,179,17,0,238,2,0.35366,2125,female,23,5,right,1,0,0,,Not sure,unsure,no response,50,50,50
101,0,4,180,93,0,162,1,0.29017,2125,female,23,5,right,1,0,0,,Not sure,unsure,no response,50,50,50
101,0,4,181,5,0,250,2,0.2933,2125,female,23,5,right,1,0,0,,Not sure,unsure,no response,50,50,50
101,0,4,182,67,0,188,1,0.28037,2125,female,23,5,right,1,0,0,,Not sure,unsure,no response,50,50,50
101,0,4,183,18,0,237,2,0.26821,2125,female,23,5,right,1,0,0,,Not sure,unsure,no response,50,50,50
101,0,4,184,1,0,254,2,0.33605,2125,female,23,5,right,1,0,0,,Not sure,unsure,no response,50,50,50
101,0,4,185,24,0,231,2,0.24916,2125,female,23,5,right,1,0,0,,Not sure,unsure,no response,50,50,50
101,0,4,186,40,0,215,2,0.28564,2125,female,23,5,right,1,0,0,,Not sure,unsure,no response,50,50,50
101,0,4,187,30,0,225,2,0.2808,2125,female,23,5,right,1,0,0,,Not sure,unsure,no response,50,50,50
101,0,4,188,74,0,181,1,0.26864,2125,female,23,5,right,1,0,0,,Not sure,unsure,no response,50,50,50
101,0,4,189,64,0,191,1,0.38454,2125,female,23,5,right,1,0,0,,Not sure,unsure,no response,50,50,50
101,0,4,190,57,0,198,1,0.31151,2125,female,23,5,right,1,0,0,,Not sure,unsure,no response,50,50,50
101,0,4,191,3,0,252,2,0.2739,2125,female,23,5,right,1,0,0,,Not sure,unsure,no response,50,50,50
101,0,4,192,20,0,235,2,0.26977,2125,female,23,5,right,1,0,0,,Not sure,unsure,no response,50,50,50
101,0,4,193,52,0,203,2,0.59369,2125,female,23,5,right,1,0,0,,Not sure,unsure,no response,50,50,50
101,0,4,194,97,0,158,1,0.2642,2125,female,23,5,right,1,0,0,,Not sure,unsure,no response,50,50,50
101,0,4,195,32,0,223,2,0.30074,2125,female,23,5,right,1,0,0,,Not sure,unsure,no response,50,50,50
101,0,4,196,99,0,156,1,0.29517,2125,female,23,5,right,1,0,0,,Not sure,unsure,no response,50,50,50
101,0,4,197,86,0,169,1,0.27431,2125,female,23,5,right,1,0,0,,Not sure,unsure,no response,50,50,50
101,0,4,198,80,0,175,1,0.35014,2125,female,23,5,right,1,0,0,,Not sure,unsure,no response,50,50,50
101,0,4,199,36,0,219,2,0.19852,2125,female,23,5,right,1,0,0,,Not sure,unsure,no response,50,50,50
101,0,4,200,22,0,233,2,0.22182,2125,female,23,5,right,1,0,0,,Not sure,unsure,no response,50,50,50
101,0,4,201,73,0,182,1,0.25189,2125,female,23,5,right,1,0,0,,Not sure,unsure,no response,50,50,50
101,0,4,202,54,0,201,2,0.30435,2125,female,23,5,right,1,0,0,,Not sure,unsure,no response,50,50,50
101,0,4,203,45,0,210,2,0.28279,2125,female,23,5,right,1,0,0,,Not sure,unsure,no response,50,50,50
101,0,4,204,2,0,253,2,0.25392,2125,female,23,5,right,1,0,0,,Not sure,unsure,no response,50,50,50
101,0,4,205,28,0,227,2,0.042469,2125,female,23,5,right,1,0,0,,Not sure,unsure,no response,50,50,50
101,0,4,206,11,0,244,2,0.00018628,2125,female,23,5,right,1,0,0,,Not sure,unsure,no response,50,50,50
101,0,4,207,62,0,193,2,0.73516,2125,female,23,5,right,1,0,0,,Not sure,unsure,no response,50,50,50
101,0,4,208,9,0,246,2,0.41537,2125,female,23,5,right,1,0,0,,Not sure,unsure,no response,50,50,50
101,0,4,209,56,0,199,2,0.48564,2125,female,23,5,right,1,0,0,,Not sure,unsure,no response,50,50,50
101,0,4,210,51,0,204,2,0.3204,2125,female,23,5,right,1,0,0,,Not sure,unsure,no response,50,50,50
101,0,5,211,88,0,167,1,0.30977,2125,female,23,5,right,1,0,0,,Not sure,unsure,no response,50,50,50
101,0,5,212,98,0,157,1,0.28833,2125,female,23,5,right,1,0,0,,Not sure,unsure,no response,50,50,50
101,0,5,213,1,0,254,2,0.25936,2125,female,23,5,right,1,0,0,,Not sure,unsure,no response,50,50,50
101,0,5,214,42,0,213,2,0.35992,2125,female,23,5,right,1,0,0,,Not sure,unsure,no response,50,50,50
101,0,5,215,45,0,210,2,0.32016,2125,female,23,5,right,1,0,0,,Not sure,unsure,no response,50,50,50
101,0,5,216,86,0,169,1,0.33006,2125,female,23,5,right,1,0,0,,Not sure,unsure,no response,50,50,50
101,0,5,217,51,0,204,2,0.35575,2125,female,23,5,right,1,0,0,,Not sure,unsure,no response,50,50,50
101,0,5,218,23,0,232,2,0.28401,2125,female,23,5,right,1,0,0,,Not sure,unsure,no response,50,50,50
101,0,5,219,89,0,166,1,0.39934,2125,female,23,5,right,1,0,0,,Not sure,unsure,no response,50,50,50
101,0,5,220,3,0,252,2,0.30962,2125,female,23,5,right,1,0,0,,Not sure,unsure,no response,50,50,50
101,0,5,221,67,0,188,1,0.41603,2125,female,23,5,right,1,0,0,,Not sure,unsure,no response,50,50,50
101,0,5,222,95,0,160,1,0.35757,2125,female,23,5,right,1,0,0,,Not sure,unsure,no response,50,50,50
101,0,5,223,24,0,231,2,0.32589,2125,female,23,5,right,1,0,0,,Not sure,unsure,no response,50,50,50
101,0,5,224,65,0,190,2,0.5675,2125,female,23,5,right,1,0,0,,Not sure,unsure,no response,50,50,50
101,0,5,225,36,0,219,2,0.3269,2125,female,23,5,right,1,0,0,,Not sure,unsure,no response,50,50,50
101,0,5,226,10,0,245,2,0.32864,2125,female,23,5,right,1,0,0,,Not sure,unsure,no response,50,50,50
101,0,5,227,41,0,214,2,0.33037,2125,female,23,5,right,1,0,0,,Not sure,unsure,no response,50,50,50
101,0,5,228,18,0,237,2,0.33213,2125,female,23,5,right,1,0,0,,Not sure,unsure,no response,50,50,50
101,0,5,229,54,0,201,2,0.3739,2125,female,23,5,right,1,0,0,,Not sure,unsure,no response,50,50,50
101,0,5,230,90,0,165,1,0.31758,2125,female,23,5,right,1,0,0,,Not sure,unsure,no response,50,50,50
101,0,5,231,57,0,198,2,0.34315,2125,female,23,5,right,1,0,0,,Not sure,unsure,no response,50,50,50
101,0,5,232,61,0,194,2,0.29642,2125,female,23,5,right,1,0,0,,Not sure,unsure,no response,50,50,50
101,0,5,233,34,0,221,2,0.32356,2125,female,23,5,right,1,0,0,,Not sure,unsure,no response,50,50,50
101,0,5,234,55,0,200,2,0.29324,2125,female,23,5,right,1,0,0,,Not sure,unsure,no response,50,50,50
101,0,5,235,20,0,235,2,0.30434,2125,female,23,5,right,1,0,0,,Not sure,unsure,no response,50,50,50
101,0,5,236,77,0,178,1,0.31479,2125,female,23,5,right,1,0,0,,Not sure,unsure,no response,50,50,50
101,0,5,237,53,0,202,2,0.2693,2125,female,23,5,right,1,0,0,,Not sure,unsure,no response,50,50,50
101,0,5,238,58,0,197,2,0.21715,2125,female,23,5,right,1,0,0,,Not sure,unsure,no response,50,50,50
101,0,5,239,5,0,250,2,0.23914,2125,female,23,5,right,1,0,0,,Not sure,unsure,no response,50,50,50
101,0,5,240,13,0,242,2,0.27627,2125,female,23,5,right,1,0,0,,Not sure,unsure,no response,50,50,50
101,0,5,241,16,0,239,2,0.29631,2125,female,23,5,right,1,0,0,,Not sure,unsure,no response,50,50,50
101,0,5,242,84,0,171,1,0.28339,2125,female,23,5,right,1,0,0,,Not sure,unsure,no response,50,50,50
101,0,5,243,49,0,206,2,0.47837,2125,female,23,5,right,1,0,0,,Not sure,unsure,no response,50,50,50
101,0,5,244,99,0,156,1,0.36187,2125,female,23,5,right,1,0,0,,Not sure,unsure,no response,50,50,50
101,0,5,245,50,0,205,2,0.37827,2125,female,23,5,right,1,0,0,,Not sure,unsure,no response,50,50,50
101,0,5,246,14,0,241,2,0.31395,2125,female,23,5,right,1,0,0,,Not sure,unsure,no response,50,50,50
101,0,5,247,72,0,183,1,0.28438,2125,female,23,5,right,1,0,0,,Not sure,unsure,no response,50,50,50
101,0,5,248,28,0,227,2,0.3115,2125,female,23,5,right,1,0,0,,Not sure,unsure,no response,50,50,50
101,0,5,249,46,0,209,2,0.28991,2125,female,23,5,right,1,0,0,,Not sure,unsure,no response,50,50,50
101,0,5,250,27,0,228,2,0.33304,2125,female,23,5,right,1,0,0,,Not sure,unsure,no response,50,50,50
101,0,5,251,30,0,225,2,0.33424,2125,female,23,5,right,1,0,0,,Not sure,unsure,no response,50,50,50
101,0,5,252,11,0,244,2,0.34317,2125,female,23,5,right,1,0,0,,Not sure,unsure,no response,50,50,50
101,0,5,253,97,0,158,1,0.32021,2125,female,23,5,right,1,0,0,,Not sure,unsure,no response,50,50,50
101,0,5,254,79,0,176,1,0.34595,2125,female,23,5,right,1,0,0,,Not sure,unsure,no response,50,50,50
101,0,5,255,73,0,182,1,0.30706,2125,female,23,5,right,1,0,0,,Not sure,unsure,no response,50,50,50
101,0,5,256,69,0,186,1,0.34154,2125,female,23,5,right,1,0,0,,Not sure,unsure,no response,50,50,50
101,0,5,257,44,0,211,2,0.3265,2125,female,23,5,right,1,0,0,,Not sure,unsure,no response,50,50,50
101,0,5,258,80,0,175,1,0.32827,2125,female,23,5,right,1,0,0,,Not sure,unsure,no response,50,50,50
101,0,5,259,33,0,222,2,0.33003,2125,female,23,5,right,1,0,0,,Not sure,unsure,no response,50,50,50
101,0,5,260,76,0,179,1,0.28386,2125,female,23,5,right,1,0,0,,Not sure,unsure,no response,50,50,50
101,0,6,261,96,0,159,1,0.70593,2125,female,23,5,right,1,0,0,,Not sure,unsure,no response,50,50,50
101,0,6,262,89,0,166,1,0.33154,2125,female,23,5,right,1,0,0,,Not sure,unsure,no response,50,50,50
101,0,6,263,50,0,205,2,0.3093,2125,female,23,5,right,1,0,0,,Not sure,unsure,no response,50,50,50
101,0,6,264,21,0,234,2,0.31174,2125,female,23,5,right,1,0,0,,Not sure,unsure,no response,50,50,50
101,0,6,265,19,0,236,2,0.32223,2125,female,23,5,right,1,0,0,,Not sure,unsure,no response,50,50,50
101,0,6,266,75,0,180,1,0.29995,2125,female,23,5,right,1,0,0,,Not sure,unsure,no response,50,50,50
101,0,6,267,61,0,194,2,0.46241,2125,female,23,5,right,1,0,0,,Not sure,unsure,no response,50,50,50
101,0,6,268,85,0,170,1,0.29861,2125,female,23,5,right,1,0,0,,Not sure,unsure,no response,50,50,50
101,0,6,269,2,0,253,2,0.30967,2125,female,23,5,right,1,0,0,,Not sure,unsure,no response,50,50,50
101,0,6,270,46,0,209,2,0.36818,2125,female,23,5,right,1,0,0,,Not sure,unsure,no response,50,50,50
101,0,6,271,32,0,223,2,0.3679,2125,female,23,5,right,1,0,0,,Not sure,unsure,no response,50,50,50
101,0,6,272,53,0,202,2,0.35144,2125,female,23,5,right,1,0,0,,Not sure,unsure,no response,50,50,50
101,0,6,273,43,0,212,2,0.35178,2125,female,23,5,right,1,0,0,,Not sure,unsure,no response,50,50,50
101,0,6,274,98,0,157,1,0.37626,2125,female,23,5,right,1,0,0,,Not sure,unsure,no response,50,50,50
101,0,6,275,57,0,198,2,0.29588,2125,female,23,5,right,1,0,0,,Not sure,unsure,no response,50,50,50
101,0,6,276,15,0,240,2,0.34686,2125,female,23,5,right,1,0,0,,Not sure,unsure,no response,50,50,50
101,0,6,277,87,0,168,1,0.34001,2125,female,23,5,right,1,0,0,,Not sure,unsure,no response,50,50,50
101,0,6,278,20,0,235,2,0.36504,2125,female,23,5,right,1,0,0,,Not sure,unsure,no response,50,50,50
101,0,6,279,29,0,226,2,0.3494,2125,female,23,5,right,1,0,0,,Not sure,unsure,no response,50,50,50
101,0,6,280,3,0,252,2,0.34184,2125,female,23,5,right,1,0,0,,Not sure,unsure,no response,50,50,50
101,0,6,281,97,0,158,1,0.36679,2125,female,23,5,right,1,0,0,,Not sure,unsure,no response,50,50,50
101,0,6,282,27,0,228,2,0.32668,2125,female,23,5,right,1,0,0,,Not sure,unsure,no response,50,50,50
101,0,6,283,88,0,167,1,0.35226,2125,female,23,5,right,1,0,0,,Not sure,unsure,no response,50,50,50
101,0,6,284,90,0,165,1,0.39261,2125,female,23,5,right,1,0,0,,Not sure,unsure,no response,50,50,50
101,0,6,285,14,0,241,2,0.39953,2125,female,23,5,right,1,0,0,,Not sure,unsure,no response,50,50,50
101,0,6,286,74,0,181,1,0.45367,2125,female,23,5,right,1,0,0,,Not sure,unsure,no response,50,50,50
101,0,6,287,37,0,218,2,0.37796,2125,female,23,5,right,1,0,0,,Not sure,unsure,no response,50,50,50
101,0,6,288,44,0,211,2,0.39362,2125,female,23,5,right,1,0,0,,Not sure,unsure,no response,50,50,50
101,0,6,289,78,0,177,1,0.35257,2125,female,23,5,right,1,0,0,,Not sure,unsure,no response,50,50,50
101,0,6,290,77,0,178,1,0.58492,2125,female,23,5,right,1,0,0,,Not sure,unsure,no response,50,50,50
101,0,6,291,72,0,183,1,0.53545,2125,female,23,5,right,1,0,0,,Not sure,unsure,no response,50,50,50
101,0,6,292,16,0,239,2,0.39219,2125,female,23,5,right,1,0,0,,Not sure,unsure,no response,50,50,50
101,0,6,293,91,0,164,1,0.54309,2125,female,23,5,right,1,0,0,,Not sure,unsure,no response,50,50,50
101,0,6,294,49,0,206,2,0.35175,2125,female,23,5,right,1,0,0,,Not sure,unsure,no response,50,50,50
101,0,6,295,4,0,251,2,0.28822,2125,female,23,5,right,1,0,0,,Not sure,unsure,no response,50,50,50
101,0,6,296,25,0,230,2,0.33921,2125,female,23,5,right,1,0,0,,Not sure,unsure,no response,50,50,50
101,0,6,297,81,0,174,1,0.33248,2125,female,23,5,right,1,0,0,,Not sure,unsure,no response,50,50,50
101,0,6,298,51,0,204,2,0.38132,2125,female,23,5,right,1,0,0,,Not sure,unsure,no response,50,50,50
101,0,6,299,11,0,244,2,0.33302,2125,female,23,5,right,1,0,0,,Not sure,unsure,no response,50,50,50
101,0,6,300,59,0,196,2,0.41405,2125,female,23,5,right,1,0,0,,Not sure,unsure,no response,50,50,50
101,0,6,301,68,0,187,2,0.50026,2125,female,23,5,right,1,0,0,,Not sure,unsure,no response,50,50,50
101,0,6,302,60,0,195,2,0.37438,2125,female,23,5,right,1,0,0,,Not sure,unsure,no response,50,50,50
101,0,6,303,67,0,188,2,0.39801,2125,female,23,5,right,1,0,0,,Not sure,unsure,no response,50,50,50
101,0,6,304,17,0,238,2,0.341,2125,female,23,5,right,1,0,0,,Not sure,unsure,no response,50,50,50
101,0,6,305,92,0,163,1,0.36616,2125,female,23,5,right,1,0,0,,Not sure,unsure,no response,50,50,50
101,0,6,306,36,0,219,2,0.30964,2125,female,23,5,right,1,0,0,,Not sure,unsure,no response,50,50,50
101,0,6,307,9,0,246,2,0.28015,2125,female,23,5,right,1,0,0,,Not sure,unsure,no response,50,50,50
101,0,6,308,58,0,197,2,0.29197,2125,female,23,5,right,1,0,0,,Not sure,unsure,no response,50,50,50
101,0,6,309,23,0,232,2,0.31924,2125,female,23,5,right,1,0,0,,Not sure,unsure,no response,50,50,50
101,0,6,310,7,0,248,2,0.29684,2125,female,23,5,right,1,0,0,,Not sure,unsure,no response,50,50,50
101,0,7,311,52,0,203,2,0.3525,2125,female,23,5,right,1,0,0,,Not sure,unsure,no response,50,50,50
101,0,7,312,36,0,219,2,8.30E-05,2125,female,23,5,right,1,0,0,,Not sure,unsure,no response,50,50,50
101,0,7,313,50,0,205,2,0.35189,2125,female,23,5,right,1,0,0,,Not sure,unsure,no response,50,50,50
101,0,7,314,93,0,162,1,0.42429,2125,female,23,5,right,1,0,0,,Not sure,unsure,no response,50,50,50
101,0,7,315,58,0,197,2,0.36584,2125,female,23,5,right,1,0,0,,Not sure,unsure,no response,50,50,50
101,0,7,316,7,0,248,2,0.46955,2125,female,23,5,right,1,0,0,,Not sure,unsure,no response,50,50,50
101,0,7,317,39,0,216,2,0.44896,2125,female,23,5,right,1,0,0,,Not sure,unsure,no response,50,50,50
101,0,7,318,10,0,245,2,0.40574,2125,female,23,5,right,1,0,0,,Not sure,unsure,no response,50,50,50
101,0,7,319,98,0,157,1,0.45202,2125,female,23,5,right,1,0,0,,Not sure,unsure,no response,50,50,50
101,0,7,320,33,0,222,2,0.3602,2125,female,23,5,right,1,0,0,,Not sure,unsure,no response,50,50,50
101,0,7,321,81,0,174,1,0.36856,2125,female,23,5,right,1,0,0,,Not sure,unsure,no response,50,50,50
101,0,7,322,60,0,195,2,0.56823,2125,female,23,5,right,1,0,0,,Not sure,unsure,no response,50,50,50
101,0,7,323,100,0,155,1,0.35946,2125,female,23,5,right,1,0,0,,Not sure,unsure,no response,50,50,50
101,0,7,324,28,0,227,2,0.3359,2125,female,23,5,right,1,0,0,,Not sure,unsure,no response,50,50,50
101,0,7,325,65,0,190,2,0.35296,2125,female,23,5,right,1,0,0,,Not sure,unsure,no response,50,50,50
101,0,7,326,56,0,199,2,0.4492,2125,female,23,5,right,1,0,0,,Not sure,unsure,no response,50,50,50
101,0,7,327,96,0,159,1,0.45402,2125,female,23,5,right,1,0,0,,Not sure,unsure,no response,50,50,50
101,0,7,328,5,0,250,2,0.33813,2125,female,23,5,right,1,0,0,,Not sure,unsure,no response,50,50,50
101,0,7,329,2,0,253,2,0.41116,2125,female,23,5,right,1,0,0,,Not sure,unsure,no response,50,50,50
101,0,7,330,77,0,178,1,0.28158,2125,female,23,5,right,1,0,0,,Not sure,unsure,no response,50,50,50
101,0,7,331,61,0,194,2,0.42936,2125,female,23,5,right,1,0,0,,Not sure,unsure,no response,50,50,50
101,0,7,332,18,0,237,2,0.33093,2125,female,23,5,right,1,0,0,,Not sure,unsure,no response,50,50,50
101,0,7,333,41,0,214,2,0.3727,2125,female,23,5,right,1,0,0,,Not sure,unsure,no response,50,50,50
101,0,7,334,83,0,172,1,0.34029,2125,female,23,5,right,1,0,0,,Not sure,unsure,no response,50,50,50
101,0,7,335,22,0,233,2,0.30148,2125,female,23,5,right,1,0,0,,Not sure,unsure,no response,50,50,50
101,0,7,336,76,0,179,1,0.3198,2125,female,23,5,right,1,0,0,,Not sure,unsure,no response,50,50,50
101,0,7,337,71,0,184,1,0.34549,2125,female,23,5,right,1,0,0,,Not sure,unsure,no response,50,50,50
101,0,7,338,63,0,192,1,0.34676,2125,female,23,5,right,1,0,0,,Not sure,unsure,no response,50,50,50
101,0,7,339,47,0,208,2,0.36379,2125,female,23,5,right,1,0,0,,Not sure,unsure,no response,50,50,50
101,0,7,340,13,0,242,2,0.32403,2125,female,23,5,right,1,0,0,,Not sure,unsure,no response,50,50,50
101,0,7,341,19,0,236,2,0.32577,2125,female,23,5,right,1,0,0,,Not sure,unsure,no response,50,50,50
101,0,7,342,57,0,198,2,0.33563,2125,female,23,5,right,1,0,0,,Not sure,unsure,no response,50,50,50
101,0,7,343,86,0,169,1,0.36066,2125,female,23,5,right,1,0,0,,Not sure,unsure,no response,50,50,50
101,0,7,344,8,0,247,2,0.38502,2125,female,23,5,right,1,0,0,,Not sure,unsure,no response,50,50,50
101,0,7,345,23,0,232,2,0.39186,2125,female,23,5,right,1,0,0,,Not sure,unsure,no response,50,50,50
101,0,7,346,78,0,177,1,0.36688,2125,female,23,5,right,1,0,0,,Not sure,unsure,no response,50,50,50
101,0,7,347,14,0,241,2,0.39035,2125,female,23,5,right,1,0,0,,Not sure,unsure,no response,50,50,50
101,0,7,348,17,0,238,2,0.39747,2125,female,23,5,right,1,0,0,,Not sure,unsure,no response,50,50,50
101,0,7,349,55,0,200,2,0.62046,2125,female,23,5,right,1,0,0,,Not sure,unsure,no response,50,50,50
101,0,7,350,53,0,202,2,0.45766,2125,female,23,5,right,1,0,0,,Not sure,unsure,no response,50,50,50
101,0,7,351,38,0,217,2,0.37373,2125,female,23,5,right,1,0,0,,Not sure,unsure,no response,50,50,50
101,0,7,352,26,0,229,2,0.31739,2125,female,23,5,right,1,0,0,,Not sure,unsure,no response,50,50,50
101,0,7,353,48,0,207,2,0.31916,2125,female,23,5,right,1,0,0,,Not sure,unsure,no response,50,50,50
101,0,7,354,94,0,161,1,0.36084,2125,female,23,5,right,1,0,0,,Not sure,unsure,no response,50,50,50
101,0,7,355,88,0,167,1,0.39335,2125,female,23,5,right,1,0,0,,Not sure,unsure,no response,50,50,50
101,0,7,356,85,0,170,1,0.40021,2125,female,23,5,right,1,0,0,,Not sure,unsure,no response,50,50,50
101,0,7,357,35,0,220,2,0.38245,2125,female,23,5,right,1,0,0,,Not sure,unsure,no response,50,50,50
101,0,7,358,11,0,244,2,0.41339,2125,female,23,5,right,1,0,0,,Not sure,unsure,no response,50,50,50
101,0,7,359,42,0,213,2,0.38766,2125,female,23,5,right,1,0,0,,Not sure,unsure,no response,50,50,50
101,0,7,360,95,0,160,1,0.36266,2125,female,23,5,right,1,0,0,,Not sure,unsure,no response,50,50,50
101,0,8,361,87,0,168,1,0.50448,2125,female,23,5,right,1,0,0,,Not sure,unsure,no response,50,50,50
101,0,8,362,77,0,178,1,0.53853,2125,female,23,5,right,1,0,0,,Not sure,unsure,no response,50,50,50
101,0,8,363,56,0,199,2,0.37133,2125,female,23,5,right,1,0,0,,Not sure,unsure,no response,50,50,50
101,0,8,364,42,0,213,2,0.33888,2125,female,23,5,right,1,0,0,,Not sure,unsure,no response,50,50,50
101,0,8,365,7,0,248,2,0.29995,2125,female,23,5,right,1,0,0,,Not sure,unsure,no response,50,50,50
101,0,8,366,29,0,226,2,0.28648,2125,female,23,5,right,1,0,0,,Not sure,unsure,no response,50,50,50
101,0,8,367,33,0,222,2,0.32953,2125,female,23,5,right,1,0,0,,Not sure,unsure,no response,50,50,50
101,0,8,368,4,0,251,2,0.33125,2125,female,23,5,right,1,0,0,,Not sure,unsure,no response,50,50,50
101,0,8,369,47,0,208,2,0.41291,2125,female,23,5,right,1,0,0,,Not sure,unsure,no response,50,50,50
101,0,8,370,45,0,210,2,0.29137,2125,female,23,5,right,1,0,0,,Not sure,unsure,no response,50,50,50
101,0,8,371,89,0,166,1,0.2705,2125,female,23,5,right,1,0,0,,Not sure,unsure,no response,50,50,50
101,0,8,372,26,0,229,2,0.25816,2125,female,23,5,right,1,0,0,,Not sure,unsure,no response,50,50,50
101,0,8,373,13,0,242,2,0.27887,2125,female,23,5,right,1,0,0,,Not sure,unsure,no response,50,50,50
101,0,8,374,91,0,164,1,0.41865,2125,female,23,5,right,1,0,0,,Not sure,unsure,no response,50,50,50
101,0,8,375,34,0,221,2,0.26422,2125,female,23,5,right,1,0,0,,Not sure,unsure,no response,50,50,50
101,0,8,376,68,0,187,1,0.40479,2125,female,23,5,right,1,0,0,,Not sure,unsure,no response,50,50,50
101,0,8,377,83,0,172,1,0.30713,2125,female,23,5,right,1,0,0,,Not sure,unsure,no response,50,50,50
101,0,8,378,84,0,171,1,0.36543,2125,female,23,5,right,1,0,0,,Not sure,unsure,no response,50,50,50
101,0,8,379,52,0,203,2,0.31778,2125,female,23,5,right,1,0,0,,Not sure,unsure,no response,50,50,50
101,0,8,380,21,0,234,2,0.34341,2125,female,23,5,right,1,0,0,,Not sure,unsure,no response,50,50,50
101,0,8,381,2,0,253,2,0.29666,2125,female,23,5,right,1,0,0,,Not sure,unsure,no response,50,50,50
101,0,8,382,60,0,195,2,0.31579,2125,female,23,5,right,1,0,0,,Not sure,unsure,no response,50,50,50
101,0,8,383,12,0,243,2,0.31749,2125,female,23,5,right,1,0,0,,Not sure,unsure,no response,50,50,50
101,0,8,384,63,0,192,2,0.42343,2125,female,23,5,right,1,0,0,,Not sure,unsure,no response,50,50,50
101,0,8,385,46,0,209,2,0.38076,2125,female,23,5,right,1,0,0,,Not sure,unsure,no response,50,50,50
101,0,8,386,25,0,230,2,0.32446,2125,female,23,5,right,1,0,0,,Not sure,unsure,no response,50,50,50
101,0,8,387,61,0,194,2,0.31827,2125,female,23,5,right,1,0,0,,Not sure,unsure,no response,50,50,50
101,0,8,388,41,0,214,2,0.2959,2125,female,23,5,right,1,0,0,,Not sure,unsure,no response,50,50,50
101,0,8,389,6,0,249,2,0.29111,2125,female,23,5,right,1,0,0,,Not sure,unsure,no response,50,50,50
101,0,8,390,54,0,201,2,0.2944,2125,female,23,5,right,1,0,0,,Not sure,unsure,no response,50,50,50
101,0,8,391,88,0,167,1,0.34536,2125,female,23,5,right,1,0,0,,Not sure,unsure,no response,50,50,50
101,0,8,392,48,0,207,2,0.31434,2125,female,23,5,right,1,0,0,,Not sure,unsure,no response,50,50,50
101,0,8,393,78,0,177,1,0.34087,2125,female,23,5,right,1,0,0,,Not sure,unsure,no response,50,50,50
101,0,8,394,99,0,156,1,0.35806,2125,female,23,5,right,1,0,0,,Not sure,unsure,no response,50,50,50
101,0,8,395,44,0,211,2,0.41425,2125,female,23,5,right,1,0,0,,Not sure,unsure,no response,50,50,50
101,0,8,396,1,0,254,2,0.42045,2125,female,23,5,right,1,0,0,,Not sure,unsure,no response,50,50,50
101,0,8,397,71,0,184,1,0.36209,2125,female,23,5,right,1,0,0,,Not sure,unsure,no response,50,50,50
101,0,8,398,65,0,190,1,0.34638,2125,female,23,5,right,1,0,0,,Not sure,unsure,no response,50,50,50
101,0,8,399,24,0,231,2,0.36352,2125,female,23,5,right,1,0,0,,Not sure,unsure,no response,50,50,50
101,0,8,400,58,0,197,2,0.28385,2125,female,23,5,right,1,0,0,,Not sure,unsure,no response,50,50,50
101,0,8,401,76,0,179,1,0.29498,2125,female,23,5,right,1,0,0,,Not sure,unsure,no response,50,50,50
101,0,8,402,3,0,252,2,0.37814,2125,female,23,5,right,1,0,0,,Not sure,unsure,no response,50,50,50
101,0,8,403,27,0,228,2,0.37775,2125,female,23,5,right,1,0,0,,Not sure,unsure,no response,50,50,50
101,0,8,404,10,0,245,2,0.36149,2125,female,23,5,right,1,0,0,,Not sure,unsure,no response,50,50,50
101,0,8,405,37,0,218,2,0.35378,2125,female,23,5,right,1,0,0,,Not sure,unsure,no response,50,50,50
101,0,8,406,100,0,155,1,0.39433,2125,female,23,5,right,1,0,0,,Not sure,unsure,no response,50,50,50
101,0,8,407,53,0,202,2,0.39308,2125,female,23,5,right,1,0,0,,Not sure,unsure,no response,50,50,50
101,0,8,408,97,0,158,1,0.39204,2125,female,23,5,right,1,0,0,,Not sure,unsure,no response,50,50,50
101,0,8,409,74,0,181,1,0.34302,2125,female,23,5,right,1,0,0,,Not sure,unsure,no response,50,50,50
101,0,8,410,75,0,180,1,0.36005,2125,female,23,5,right,1,0,0,,Not sure,unsure,no response,50,50,50
101,0,9,411,99,0,156,1,0.48731,2125,female,23,5,right,1,0,0,,Not sure,unsure,no response,50,50,50
101,0,9,412,89,0,166,1,0.2981,2125,female,23,5,right,1,0,0,,Not sure,unsure,no response,50,50,50
101,0,9,413,13,0,242,2,0.34925,2125,female,23,5,right,1,0,0,,Not sure,unsure,no response,50,50,50
101,0,9,414,23,0,232,2,0.28561,2125,female,23,5,right,1,0,0,,Not sure,unsure,no response,50,50,50
101,0,9,415,4,0,251,2,0.29673,2125,female,23,5,right,1,0,0,,Not sure,unsure,no response,50,50,50
101,0,9,416,60,0,195,2,0.29978,2125,female,23,5,right,1,0,0,,Not sure,unsure,no response,50,50,50
101,0,9,417,73,0,182,1,0.39833,2125,female,23,5,right,1,0,0,,Not sure,unsure,no response,50,50,50
101,0,9,418,67,0,188,1,0.29337,2125,female,23,5,right,1,0,0,,Not sure,unsure,no response,50,50,50
101,0,9,419,54,0,201,2,0.35244,2125,female,23,5,right,1,0,0,,Not sure,unsure,no response,50,50,50
101,0,9,420,85,0,170,1,0.31281,2125,female,23,5,right,1,0,0,,Not sure,unsure,no response,50,50,50
101,0,9,421,26,0,229,2,0.33923,2125,female,23,5,right,1,0,0,,Not sure,unsure,no response,50,50,50
101,0,9,422,2,0,253,2,0.32424,2125,female,23,5,right,1,0,0,,Not sure,unsure,no response,50,50,50
101,0,9,423,14,0,241,2,0.28602,2125,female,23,5,right,1,0,0,,Not sure,unsure,no response,50,50,50
101,0,9,424,28,0,227,2,0.28928,2125,female,23,5,right,1,0,0,,Not sure,unsure,no response,50,50,50
101,0,9,425,22,0,233,2,0.29234,2125,female,23,5,right,1,0,0,,Not sure,unsure,no response,50,50,50
101,0,9,426,94,0,161,1,0.32735,2125,female,23,5,right,1,0,0,,Not sure,unsure,no response,50,50,50
101,0,9,427,72,0,183,1,0.3132,2125,female,23,5,right,1,0,0,,Not sure,unsure,no response,50,50,50
101,0,9,428,24,0,231,2,0.31575,2125,female,23,5,right,1,0,0,,Not sure,unsure,no response,50,50,50
101,0,9,429,82,0,173,1,0.27749,2125,female,23,5,right,1,0,0,,Not sure,unsure,no response,50,50,50
101,0,9,430,59,0,196,2,0.28123,2125,female,23,5,right,1,0,0,,Not sure,unsure,no response,50,50,50
101,0,9,431,97,0,158,1,0.22913,2125,female,23,5,right,1,0,0,,Not sure,unsure,no response,50,50,50
101,0,9,432,11,0,244,2,0.28308,2125,female,23,5,right,1,0,0,,Not sure,unsure,no response,50,50,50
101,0,9,433,57,0,198,2,0.27817,2125,female,23,5,right,1,0,0,,Not sure,unsure,no response,50,50,50
101,0,9,434,5,0,250,2,0.30606,2125,female,23,5,right,1,0,0,,Not sure,unsure,no response,50,50,50
101,0,9,435,75,0,180,1,0.34865,2125,female,23,5,right,1,0,0,,Not sure,unsure,no response,50,50,50
101,0,9,436,44,0,211,2,0.29354,2125,female,23,5,right,1,0,0,,Not sure,unsure,no response,50,50,50
101,0,9,437,39,0,216,2,0.31279,2125,female,23,5,right,1,0,0,,Not sure,unsure,no response,50,50,50
101,0,9,438,50,0,205,2,0.32318,2125,female,23,5,right,1,0,0,,Not sure,unsure,no response,50,50,50
101,0,9,439,100,0,155,1,0.2689,2125,female,23,5,right,1,0,0,,Not sure,unsure,no response,50,50,50
101,0,9,440,58,0,197,2,0.3928,2125,female,23,5,right,1,0,0,,Not sure,unsure,no response,50,50,50
101,0,9,441,46,0,209,2,0.39165,2125,female,23,5,right,1,0,0,,Not sure,unsure,no response,50,50,50
101,0,9,442,80,0,175,1,0.27859,2125,female,23,5,right,1,0,0,,Not sure,unsure,no response,50,50,50
101,0,9,443,1,0,254,2,0.35444,2125,female,23,5,right,1,0,0,,Not sure,unsure,no response,50,50,50
101,0,9,444,74,0,181,1,0.31486,2125,female,23,5,right,1,0,0,,Not sure,unsure,no response,50,50,50
101,0,9,445,3,0,252,2,0.33333,2125,female,23,5,right,1,0,0,,Not sure,unsure,no response,50,50,50
101,0,9,446,81,0,174,1,0.32632,2125,female,23,5,right,1,0,0,,Not sure,unsure,no response,50,50,50
101,0,9,447,68,0,187,1,0.33606,2125,female,23,5,right,1,0,0,,Not sure,unsure,no response,50,50,50
101,0,9,448,38,0,217,2,0.30511,2125,female,23,5,right,1,0,0,,Not sure,unsure,no response,50,50,50
101,0,9,449,93,0,162,1,0.35562,2125,female,23,5,right,1,0,0,,Not sure,unsure,no response,50,50,50
101,0,9,450,86,0,169,1,0.32387,2125,female,23,5,right,1,0,0,,Not sure,unsure,no response,50,50,50
101,0,9,451,47,0,208,2,0.42964,2125,female,23,5,right,1,0,0,,Not sure,unsure,no response,50,50,50
101,0,9,452,83,0,172,1,0.33117,2125,female,23,5,right,1,0,0,,Not sure,unsure,no response,50,50,50
101,0,9,453,65,0,190,2,0.30098,2125,female,23,5,right,1,0,0,,Not sure,unsure,no response,50,50,50
101,0,9,454,35,0,220,2,0.3114,2125,female,23,5,right,1,0,0,,Not sure,unsure,no response,50,50,50
101,0,9,455,25,0,230,2,0.27389,2125,female,23,5,right,1,0,0,,Not sure,unsure,no response,50,50,50
101,0,9,456,17,0,238,2,0.30975,2125,female,23,5,right,1,0,0,,Not sure,unsure,no response,50,50,50
101,0,9,457,87,0,168,1,0.29613,2125,female,23,5,right,1,0,0,,Not sure,unsure,no response,50,50,50
101,0,9,458,12,0,243,2,0.29127,2125,female,23,5,right,1,0,0,,Not sure,unsure,no response,50,50,50
101,0,9,459,36,0,219,2,0.33445,2125,female,23,5,right,1,0,0,,Not sure,unsure,no response,50,50,50
101,0,9,460,45,0,210,2,0.27156,2125,female,23,5,right,1,0,0,,Not sure,unsure,no response,50,50,50
101,0,10,461,78,0,177,1,0.60164,2125,female,23,5,right,1,0,0,,Not sure,unsure,no response,50,50,50
101,0,10,462,15,0,240,2,0.37565,2125,female,23,5,right,1,0,0,,Not sure,unsure,no response,50,50,50
101,0,10,463,18,0,237,2,0.26323,2125,female,23,5,right,1,0,0,,Not sure,unsure,no response,50,50,50
101,0,10,464,88,0,167,1,0.11571,2125,female,23,5,right,1,0,0,,Not sure,unsure,no response,50,50,50
101,0,10,465,75,0,180,1,0.14195,2125,female,23,5,right,1,0,0,,Not sure,unsure,no response,50,50,50
101,0,10,466,62,0,193,1,0.17535,2125,female,23,5,right,1,0,0,,Not sure,unsure,no response,50,50,50
101,0,10,467,52,0,203,2,0.20723,2125,female,23,5,right,1,0,0,,Not sure,unsure,no response,50,50,50
101,0,10,468,9,0,246,2,0.00010947,2125,female,23,5,right,1,0,0,,Not sure,unsure,no response,50,50,50
101,0,10,469,74,0,181,1,0.22108,2125,female,23,5,right,1,0,0,,Not sure,unsure,no response,50,50,50
101,0,10,470,56,0,199,1,0.40295,2125,female,23,5,right,1,0,0,,Not sure,unsure,no response,50,50,50
101,0,10,471,31,0,224,2,0.30528,2125,female,23,5,right,1,0,0,,Not sure,unsure,no response,50,50,50
101,0,10,472,41,0,214,2,0.28363,2125,female,23,5,right,1,0,0,,Not sure,unsure,no response,50,50,50
101,0,10,473,89,0,166,1,0.23889,2125,female,23,5,right,1,0,0,,Not sure,unsure,no response,50,50,50
101,0,10,474,19,0,236,2,0.29192,2125,female,23,5,right,1,0,0,,Not sure,unsure,no response,50,50,50
101,0,10,475,90,0,165,1,0.30319,2125,female,23,5,right,1,0,0,,Not sure,unsure,no response,50,50,50
101,0,10,476,100,0,155,1,0.43367,2125,female,23,5,right,1,0,0,,Not sure,unsure,no response,50,50,50
101,0,10,477,65,0,190,1,0.38237,2125,female,23,5,right,1,0,0,,Not sure,unsure,no response,50,50,50
101,0,10,478,30,0,225,2,0.22145,2125,female,23,5,right,1,0,0,,Not sure,unsure,no response,50,50,50
101,0,10,479,61,0,194,1,0.42735,2125,female,23,5,right,1,0,0,,Not sure,unsure,no response,50,50,50
101,0,10,480,20,0,235,2,0.27303,2125,female,23,5,right,1,0,0,,Not sure,unsure,no response,50,50,50
101,0,10,481,26,0,229,2,0.25286,2125,female,23,5,right,1,0,0,,Not sure,unsure,no response,50,50,50
101,0,10,482,11,0,244,2,0.31333,2125,female,23,5,right,1,0,0,,Not sure,unsure,no response,50,50,50
101,0,10,483,14,0,241,2,0.24374,2125,female,23,5,right,1,0,0,,Not sure,unsure,no response,50,50,50
101,0,10,484,98,0,157,1,0.18507,2125,female,23,5,right,1,0,0,,Not sure,unsure,no response,50,50,50
101,0,10,485,45,0,210,2,0.29653,2125,female,23,5,right,1,0,0,,Not sure,unsure,no response,50,50,50
101,0,10,486,53,0,202,2,0.57149,2125,female,23,5,right,1,0,0,,Not sure,unsure,no response,50,50,50
101,0,10,487,77,0,178,1,0.29884,2125,female,23,5,right,1,0,0,,Not sure,unsure,no response,50,50,50
101,0,10,488,5,0,250,2,0.23794,2125,female,23,5,right,1,0,0,,Not sure,unsure,no response,50,50,50
101,0,10,489,35,0,220,2,0.000181,2125,female,23,5,right,1,0,0,,Not sure,unsure,no response,50,50,50
101,0,10,490,40,0,215,2,0.3062,2125,female,23,5,right,1,0,0,,Not sure,unsure,no response,50,50,50
101,0,10,491,44,0,211,2,0.29268,2125,female,23,5,right,1,0,0,,Not sure,unsure,no response,50,50,50
101,0,10,492,7,0,248,2,0.32772,2125,female,23,5,right,1,0,0,,Not sure,unsure,no response,50,50,50
101,0,10,493,37,0,218,2,0.31348,2125,female,23,5,right,1,0,0,,Not sure,unsure,no response,50,50,50
101,0,10,494,68,0,187,1,0.38792,2125,female,23,5,right,1,0,0,,Not sure,unsure,no response,50,50,50
101,0,10,495,85,0,170,1,0.25893,2125,female,23,5,right,1,0,0,,Not sure,unsure,no response,50,50,50
101,0,10,496,71,0,184,1,0.18344,2125,female,23,5,right,1,0,0,,Not sure,unsure,no response,50,50,50
101,0,10,497,21,0,234,2,0.31081,2125,female,23,5,right,1,0,0,,Not sure,unsure,no response,50,50,50
101,0,10,498,17,0,238,2,0.28933,2125,female,23,5,right,1,0,0,,Not sure,unsure,no response,50,50,50
101,0,10,499,93,0,162,1,0.34041,2125,female,23,5,right,1,0,0,,Not sure,unsure,no response,50,50,50
101,0,10,500,94,0,161,1,0.31741,2125,female,23,5,right,1,0,0,,Not sure,unsure,no response,50,50,50
101,0,10,501,10,0,245,2,0.31126,2125,female,23,5,right,1,0,0,,Not sure,unsure,no response,50,50,50
101,0,10,502,32,0,223,2,0.48169,2125,female,23,5,right,1,0,0,,Not sure,unsure,no response,50,50,50
101,0,10,503,80,0,175,1,0.26921,2125,female,23,5,right,1,0,0,,Not sure,unsure,no response,50,50,50
101,0,10,504,59,0,196,1,0.24888,2125,female,23,5,right,1,0,0,,Not sure,unsure,no response,50,50,50
101,0,10,505,39,0,216,2,0.34948,2125,female,23,5,right,1,0,0,,Not sure,unsure,no response,50,50,50
101,0,10,506,57,0,198,2,0.52578,2125,female,23,5,right,1,0,0,,Not sure,unsure,no response,50,50,50
101,0,10,507,64,0,191,1,0.25521,2125,female,23,5,right,1,0,0,,Not sure,unsure,no response,50,50,50
101,0,10,508,38,0,217,2,0.29971,2125,female,23,5,right,1,0,0,,Not sure,unsure,no response,50,50,50
101,0,10,509,83,0,172,1,0.37426,2125,female,23,5,right,1,0,0,,Not sure,unsure,no response,50,50,50
101,0,10,510,23,0,232,2,0.38178,2125,female,23,5,right,1,0,0,,Not sure,unsure,no response,50,50,50
101,0,11,511,6,0,249,2,1.1094,2125,female,23,5,right,1,0,0,,Not sure,unsure,no response,50,50,50
101,0,11,512,22,0,233,2,0.35836,2125,female,23,5,right,1,0,0,,Not sure,unsure,no response,50,50,50
101,0,11,513,40,0,215,2,0.36674,2125,female,23,5,right,1,0,0,,Not sure,unsure,no response,50,50,50
101,0,11,514,85,0,170,1,0.18244,2125,female,23,5,right,1,0,0,,Not sure,unsure,no response,50,50,50
101,0,11,515,57,0,198,1,0.34189,2125,female,23,5,right,1,0,0,,Not sure,unsure,no response,50,50,50
101,0,11,516,77,0,178,1,0.2709,2125,female,23,5,right,1,0,0,,Not sure,unsure,no response,50,50,50
101,0,11,517,3,0,252,2,0.30666,2125,female,23,5,right,1,0,0,,Not sure,unsure,no response,50,50,50
101,0,11,518,83,0,172,1,0.31698,2125,female,23,5,right,1,0,0,,Not sure,unsure,no response,50,50,50
101,0,11,519,61,0,194,1,0.32682,2125,female,23,5,right,1,0,0,,Not sure,unsure,no response,50,50,50
101,0,11,520,74,0,181,1,0.28856,2125,female,23,5,right,1,0,0,,Not sure,unsure,no response,50,50,50
101,0,11,521,39,0,216,2,0.29167,2125,female,23,5,right,1,0,0,,Not sure,unsure,no response,50,50,50
101,0,11,522,11,0,244,2,0.30289,2125,female,23,5,right,1,0,0,,Not sure,unsure,no response,50,50,50
101,0,11,523,38,0,217,2,0.28134,2125,female,23,5,right,1,0,0,,Not sure,unsure,no response,50,50,50
101,0,11,524,60,0,195,1,0.58125,2125,female,23,5,right,1,0,0,,Not sure,unsure,no response,50,50,50
101,0,11,525,20,0,235,2,0.34042,2125,female,23,5,right,1,0,0,,Not sure,unsure,no response,50,50,50
101,0,11,526,13,0,242,2,0.33348,2125,female,23,5,right,1,0,0,,Not sure,unsure,no response,50,50,50
101,0,11,527,56,0,199,2,0.46258,2125,female,23,5,right,1,0,0,,Not sure,unsure,no response,50,50,50
101,0,11,528,88,0,167,1,0.3147,2125,female,23,5,right,1,0,0,,Not sure,unsure,no response,50,50,50
101,0,11,529,52,0,203,1,0.51724,2125,female,23,5,right,1,0,0,,Not sure,unsure,no response,50,50,50
101,0,11,530,47,0,208,2,0.3265,2125,female,23,5,right,1,0,0,,Not sure,unsure,no response,50,50,50
101,0,11,531,64,0,191,1,0.68026,2125,female,23,5,right,1,0,0,,Not sure,unsure,no response,50,50,50
101,0,11,532,35,0,220,2,0.27531,2125,female,23,5,right,1,0,0,,Not sure,unsure,no response,50,50,50
101,0,11,533,98,0,157,1,0.31915,2125,female,23,5,right,1,0,0,,Not sure,unsure,no response,50,50,50
101,0,11,534,72,0,183,1,0.37681,2125,female,23,5,right,1,0,0,,Not sure,unsure,no response,50,50,50
101,0,11,535,91,0,164,1,0.3686,2125,female,23,5,right,1,0,0,,Not sure,unsure,no response,50,50,50
101,0,11,536,14,0,241,2,0.28027,2125,female,23,5,right,1,0,0,,Not sure,unsure,no response,50,50,50
101,0,11,537,59,0,196,2,0.48421,2125,female,23,5,right,1,0,0,,Not sure,unsure,no response,50,50,50
101,0,11,538,18,0,237,2,0.27079,2125,female,23,5,right,1,0,0,,Not sure,unsure,no response,50,50,50
101,0,11,539,69,0,186,1,0.26673,2125,female,23,5,right,1,0,0,,Not sure,unsure,no response,50,50,50
101,0,11,540,96,0,159,1,0.36651,2125,female,23,5,right,1,0,0,,Not sure,unsure,no response,50,50,50
101,0,11,541,97,0,158,1,0.23824,2125,female,23,5,right,1,0,0,,Not sure,unsure,no response,50,50,50
101,0,11,542,30,0,225,2,0.21959,2125,female,23,5,right,1,0,0,,Not sure,unsure,no response,50,50,50
101,0,11,543,84,0,171,1,0.25746,2125,female,23,5,right,1,0,0,,Not sure,unsure,no response,50,50,50
101,0,11,544,1,0,254,2,0.42195,2125,female,23,5,right,1,0,0,,Not sure,unsure,no response,50,50,50
101,0,11,545,49,0,206,2,0.33133,2125,female,23,5,right,1,0,0,,Not sure,unsure,no response,50,50,50
101,0,11,546,5,0,250,2,0.26918,2125,female,23,5,right,1,0,0,,Not sure,unsure,no response,50,50,50
101,0,11,547,17,0,238,2,0.24107,2125,female,23,5,right,1,0,0,,Not sure,unsure,no response,50,50,50
101,0,11,548,10,0,245,2,0.37432,2125,female,23,5,right,1,0,0,,Not sure,unsure,no response,50,50,50
101,0,11,549,37,0,218,2,2.0139,2125,female,23,5,right,1,0,0,,Not sure,unsure,no response,50,50,50
101,0,11,550,48,0,207,2,0.44123,2125,female,23,5,right,1,0,0,,Not sure,unsure,no response,50,50,50
101,0,11,551,75,0,180,2,1.4699,2125,female,23,5,right,1,0,0,,Not sure,unsure,no response,50,50,50
101,0,11,552,71,0,184,1,0.73557,2125,female,23,5,right,1,0,0,,Not sure,unsure,no response,50,50,50
101,0,11,553,99,0,156,1,0.37585,2125,female,23,5,right,1,0,0,,Not sure,unsure,no response,50,50,50
101,0,11,554,73,0,182,1,0.28745,2125,female,23,5,right,1,0,0,,Not sure,unsure,no response,50,50,50
101,0,11,555,31,0,224,2,0.34657,2125,female,23,5,right,1,0,0,,Not sure,unsure,no response,50,50,50
101,0,11,556,51,0,204,2,0.32357,2125,female,23,5,right,1,0,0,,Not sure,unsure,no response,50,50,50
101,0,11,557,54,0,201,2,0.30136,2125,female,23,5,right,1,0,0,,Not sure,unsure,no response,50,50,50
101,0,11,558,50,0,205,2,0.22385,2125,female,23,5,right,1,0,0,,Not sure,unsure,no response,50,50,50
101,0,11,559,32,0,223,2,0.29382,2125,female,23,5,right,1,0,0,,Not sure,unsure,no response,50,50,50
101,0,11,560,28,0,227,2,0.32096,2125,female,23,5,right,1,0,0,,Not sure,unsure,no response,50,50,50
101,0,12,561,24,0,231,2,0.72597,2125,female,23,5,right,1,0,0,,Not sure,unsure,no response,50,50,50
101,0,12,562,49,0,206,2,0.39105,2125,female,23,5,right,1,0,0,,Not sure,unsure,no response,50,50,50
101,0,12,563,29,0,226,2,0.3821,2125,female,23,5,right,1,0,0,,Not sure,unsure,no response,50,50,50
101,0,12,564,10,0,245,2,0.22962,2125,female,23,5,right,1,0,0,,Not sure,unsure,no response,50,50,50
101,0,12,565,57,0,198,2,0.60362,2125,female,23,5,right,1,0,0,,Not sure,unsure,no response,50,50,50
101,0,12,566,40,0,215,2,0.20146,2125,female,23,5,right,1,0,0,,Not sure,unsure,no response,50,50,50
101,0,12,567,99,0,156,1,0.22413,2125,female,23,5,right,1,0,0,,Not sure,unsure,no response,50,50,50
101,0,12,568,22,0,233,2,0.19005,2125,female,23,5,right,1,0,0,,Not sure,unsure,no response,50,50,50
101,0,12,569,15,0,240,2,0.34136,2125,female,23,5,right,1,0,0,,Not sure,unsure,no response,50,50,50
101,0,12,570,30,0,225,2,0.2465,2125,female,23,5,right,1,0,0,,Not sure,unsure,no response,50,50,50
101,0,12,571,3,0,252,2,0.21963,2125,female,23,5,right,1,0,0,,Not sure,unsure,no response,50,50,50
101,0,12,572,50,0,205,2,0.2255,2125,female,23,5,right,1,0,0,,Not sure,unsure,no response,50,50,50
101,0,12,573,69,0,186,1,0.2475,2125,female,23,5,right,1,0,0,,Not sure,unsure,no response,50,50,50
101,0,12,574,38,0,217,2,0.19668,2125,female,23,5,right,1,0,0,,Not sure,unsure,no response,50,50,50
101,0,12,575,56,0,199,2,0.48416,2125,female,23,5,right,1,0,0,,Not sure,unsure,no response,50,50,50
101,0,12,576,21,0,234,2,0.18298,2125,female,23,5,right,1,0,0,,Not sure,unsure,no response,50,50,50
101,0,12,577,93,0,162,1,0.23023,2125,female,23,5,right,1,0,0,,Not sure,unsure,no response,50,50,50
101,0,12,578,16,0,239,2,0.20415,2125,female,23,5,right,1,0,0,,Not sure,unsure,no response,50,50,50
101,0,12,579,1,0,254,2,0.2428,2125,female,23,5,right,1,0,0,,Not sure,unsure,no response,50,50,50
101,0,12,580,44,0,211,2,0.27205,2125,female,23,5,right,1,0,0,,Not sure,unsure,no response,50,50,50
101,0,12,581,65,0,190,2,0.80388,2125,female,23,5,right,1,0,0,,Not sure,unsure,no response,50,50,50
101,0,12,582,39,0,216,2,0.27349,2125,female,23,5,right,1,0,0,,Not sure,unsure,no response,50,50,50
101,0,12,583,86,0,169,1,0.27719,2125,female,23,5,right,1,0,0,,Not sure,unsure,no response,50,50,50
101,0,12,584,2,0,253,2,0.25707,2125,female,23,5,right,1,0,0,,Not sure,unsure,no response,50,50,50
101,0,12,585,79,0,176,1,0.27757,2125,female,23,5,right,1,0,0,,Not sure,unsure,no response,50,50,50
101,0,12,586,68,0,187,1,0.29755,2125,female,23,5,right,1,0,0,,Not sure,unsure,no response,50,50,50
101,0,12,587,96,0,159,1,0.26857,2125,female,23,5,right,1,0,0,,Not sure,unsure,no response,50,50,50
101,0,12,588,35,0,220,2,0.048551,2125,female,23,5,right,1,0,0,,Not sure,unsure,no response,50,50,50
101,0,12,589,32,0,223,2,0.27796,2125,female,23,5,right,1,0,0,,Not sure,unsure,no response,50,50,50
101,0,12,590,61,0,194,1,0.3779,2125,female,23,5,right,1,0,0,,Not sure,unsure,no response,50,50,50
101,0,12,591,23,0,232,2,0.34557,2125,female,23,5,right,1,0,0,,Not sure,unsure,no response,50,50,50
101,0,12,592,88,0,167,1,0.35462,2125,female,23,5,right,1,0,0,,Not sure,unsure,no response,50,50,50
101,0,12,593,47,0,208,2,0.29095,2125,female,23,5,right,1,0,0,,Not sure,unsure,no response,50,50,50
101,0,12,594,90,0,165,1,0.34207,2125,female,23,5,right,1,0,0,,Not sure,unsure,no response,50,50,50
101,0,12,595,31,0,224,2,0.26323,2125,female,23,5,right,1,0,0,,Not sure,unsure,no response,50,50,50
101,0,12,596,59,0,196,1,0.57171,2125,female,23,5,right,1,0,0,,Not sure,unsure,no response,50,50,50
101,0,12,597,43,0,212,2,0.31497,2125,female,23,5,right,1,0,0,,Not sure,unsure,no response,50,50,50
101,0,12,598,58,0,197,2,0.3734,2125,female,23,5,right,1,0,0,,Not sure,unsure,no response,50,50,50
101,0,12,599,98,0,157,1,0.30913,2125,female,23,5,right,1,0,0,,Not sure,unsure,no response,50,50,50
101,0,12,600,45,0,210,2,0.35148,2125,female,23,5,right,1,0,0,,Not sure,unsure,no response,50,50,50
101,0,12,601,17,0,238,2,0.015925,2125,female,23,5,right,1,0,0,,Not sure,unsure,no response,50,50,50
101,0,12,602,89,0,166,1,0.31023,2125,female,23,5,right,1,0,0,,Not sure,unsure,no response,50,50,50
101,0,12,603,94,0,161,1,0.28088,2125,female,23,5,right,1,0,0,,Not sure,unsure,no response,50,50,50
101,0,12,604,92,0,163,1,0.26838,2125,female,23,5,right,1,0,0,,Not sure,unsure,no response,50,50,50
101,0,12,605,55,0,200,2,0.26428,2125,female,23,5,right,1,0,0,,Not sure,unsure,no response,50,50,50
101,0,12,606,75,0,180,1,0.27689,2125,female,23,5,right,1,0,0,,Not sure,unsure,no response,50,50,50
101,0,12,607,74,0,181,1,0.28871,2125,female,23,5,right,1,0,0,,Not sure,unsure,no response,50,50,50
101,0,12,608,83,0,172,1,0.28392,2125,female,23,5,right,1,0,0,,Not sure,unsure,no response,50,50,50
101,0,12,609,62,0,193,2,0.255,2125,female,23,5,right,1,0,0,,Not sure,unsure,no response,50,50,50
101,0,12,610,77,0,178,1,0.3556,2125,female,23,5,right,1,0,0,,Not sure,unsure,no response,50,50,50
101,0,13,611,41,0,214,2,0.65872,2125,female,23,5,right,1,0,0,,Not sure,unsure,no response,50,50,50
101,0,13,612,13,0,242,2,0.25464,2125,female,23,5,right,1,0,0,,Not sure,unsure,no response,50,50,50
101,0,13,613,66,0,189,1,0.58722,2125,female,23,5,right,1,0,0,,Not sure,unsure,no response,50,50,50
101,0,13,614,46,0,209,2,0.36972,2125,female,23,5,right,1,0,0,,Not sure,unsure,no response,50,50,50
101,0,13,615,78,0,177,1,0.29749,2125,female,23,5,right,1,0,0,,Not sure,unsure,no response,50,50,50
101,0,13,616,56,0,199,2,0.25263,2125,female,23,5,right,1,0,0,,Not sure,unsure,no response,50,50,50
101,0,13,617,12,0,243,2,0.25712,2125,female,23,5,right,1,0,0,,Not sure,unsure,no response,50,50,50
101,0,13,618,91,0,164,1,0.22966,2125,female,23,5,right,1,0,0,,Not sure,unsure,no response,50,50,50
101,0,13,619,93,0,162,1,0.2996,2125,female,23,5,right,1,0,0,,Not sure,unsure,no response,50,50,50
101,0,13,620,100,0,155,1,0.31005,2125,female,23,5,right,1,0,0,,Not sure,unsure,no response,50,50,50
101,0,13,621,36,0,219,2,0.32051,2125,female,23,5,right,1,0,0,,Not sure,unsure,no response,50,50,50
101,0,13,622,38,0,217,2,0.23429,2125,female,23,5,right,1,0,0,,Not sure,unsure,no response,50,50,50
101,0,13,623,75,0,180,1,0.27935,2125,female,23,5,right,1,0,0,,Not sure,unsure,no response,50,50,50
101,0,13,624,90,0,165,1,0.3553,2125,female,23,5,right,1,0,0,,Not sure,unsure,no response,50,50,50
101,0,13,625,42,0,213,2,0.26777,2125,female,23,5,right,1,0,0,,Not sure,unsure,no response,50,50,50
101,0,13,626,80,0,175,1,0.31139,2125,female,23,5,right,1,0,0,,Not sure,unsure,no response,50,50,50
101,0,13,627,60,0,195,2,0.28197,2125,female,23,5,right,1,0,0,,Not sure,unsure,no response,50,50,50
101,0,13,628,47,0,208,2,0.29375,2125,female,23,5,right,1,0,0,,Not sure,unsure,no response,50,50,50
101,0,13,629,20,0,235,2,0.26483,2125,female,23,5,right,1,0,0,,Not sure,unsure,no response,50,50,50
101,0,13,630,9,0,246,2,0.24548,2125,female,23,5,right,1,0,0,,Not sure,unsure,no response,50,50,50
101,0,13,631,21,0,234,2,0.24291,2125,female,23,5,right,1,0,0,,Not sure,unsure,no response,50,50,50
101,0,13,632,79,0,176,1,0.49585,2125,female,23,5,right,1,0,0,,Not sure,unsure,no response,50,50,50
101,0,13,633,34,0,221,2,0.29075,2125,female,23,5,right,1,0,0,,Not sure,unsure,no response,50,50,50
101,0,13,634,67,0,188,2,0.51786,2125,female,23,5,right,1,0,0,,Not sure,unsure,no response,50,50,50
101,0,13,635,45,0,210,2,0.27924,2125,female,23,5,right,1,0,0,,Not sure,unsure,no response,50,50,50
101,0,13,636,25,0,230,2,0.24305,2125,female,23,5,right,1,0,0,,Not sure,unsure,no response,50,50,50
101,0,13,637,88,0,167,1,0.2643,2125,female,23,5,right,1,0,0,,Not sure,unsure,no response,50,50,50
101,0,13,638,17,0,238,2,0.24485,2125,female,23,5,right,1,0,0,,Not sure,unsure,no response,50,50,50
101,0,13,639,2,0,253,2,0.18607,2125,female,23,5,right,1,0,0,,Not sure,unsure,no response,50,50,50
101,0,13,640,94,0,161,1,0.28143,2125,female,23,5,right,1,0,0,,Not sure,unsure,no response,50,50,50
101,0,13,641,58,0,197,2,0.16533,2125,female,23,5,right,1,0,0,,Not sure,unsure,no response,50,50,50
101,0,13,642,6,0,249,2,0.18201,2125,female,23,5,right,1,0,0,,Not sure,unsure,no response,50,50,50
101,0,13,643,37,0,218,2,0.22207,2125,female,23,5,right,1,0,0,,Not sure,unsure,no response,50,50,50
101,0,13,644,29,0,226,2,0.124,2125,female,23,5,right,1,0,0,,Not sure,unsure,no response,50,50,50
101,0,13,645,27,0,228,2,0.17418,2125,female,23,5,right,1,0,0,,Not sure,unsure,no response,50,50,50
101,0,13,646,55,0,200,2,0.28619,2125,female,23,5,right,1,0,0,,Not sure,unsure,no response,50,50,50
101,0,13,647,1,0,254,2,0.21735,2125,female,23,5,right,1,0,0,,Not sure,unsure,no response,50,50,50
101,0,13,648,95,0,160,1,0.22325,2125,female,23,5,right,1,0,0,,Not sure,unsure,no response,50,50,50
101,0,13,649,92,0,163,1,0.26926,2125,female,23,5,right,1,0,0,,Not sure,unsure,no response,50,50,50
101,0,13,650,84,0,171,1,0.21702,2125,female,23,5,right,1,0,0,,Not sure,unsure,no response,50,50,50
101,0,13,651,50,0,205,2,0.18304,2125,female,23,5,right,1,0,0,,Not sure,unsure,no response,50,50,50
101,0,13,652,73,0,182,1,0.14236,2125,female,23,5,right,1,0,0,,Not sure,unsure,no response,50,50,50
101,0,13,653,3,0,252,2,0.18382,2125,female,23,5,right,1,0,0,,Not sure,unsure,no response,50,50,50
101,0,13,654,89,0,166,1,0.27108,2125,female,23,5,right,1,0,0,,Not sure,unsure,no response,50,50,50
101,0,13,655,54,0,201,2,0.22695,2125,female,23,5,right,1,0,0,,Not sure,unsure,no response,50,50,50
101,0,13,656,62,0,193,1,0.60886,2125,female,23,5,right,1,0,0,,Not sure,unsure,no response,50,50,50
101,0,13,657,99,0,156,1,0.36675,2125,female,23,5,right,1,0,0,,Not sure,unsure,no response,50,50,50
101,0,13,658,63,0,192,1,0.094483,2125,female,23,5,right,1,0,0,,Not sure,unsure,no response,50,50,50
101,0,13,659,10,0,245,2,0.24194,2125,female,23,5,right,1,0,0,,Not sure,unsure,no response,50,50,50
101,0,13,660,22,0,233,2,1.0152,2125,female,23,5,right,1,0,0,,Not sure,unsure,no response,50,50,50
101,0,14,661,13,0,242,2,0.71526,2125,female,23,5,right,1,0,0,,Not sure,unsure,no response,50,50,50
101,0,14,662,45,0,210,2,0.25307,2125,female,23,5,right,1,0,0,,Not sure,unsure,no response,50,50,50
101,0,14,663,61,0,194,1,1.5614,2125,female,23,5,right,1,0,0,,Not sure,unsure,no response,50,50,50
101,0,14,664,55,0,200,1,1.1036,2125,female,23,5,right,1,0,0,,Not sure,unsure,no response,50,50,50
101,0,14,665,31,0,224,2,0.28849,2125,female,23,5,right,1,0,0,,Not sure,unsure,no response,50,50,50
101,0,14,666,20,0,235,2,0.25965,2125,female,23,5,right,1,0,0,,Not sure,unsure,no response,50,50,50
101,0,14,667,88,0,167,1,0.20817,2125,female,23,5,right,1,0,0,,Not sure,unsure,no response,50,50,50
101,0,14,668,85,0,170,1,0.19885,2125,female,23,5,right,1,0,0,,Not sure,unsure,no response,50,50,50
101,0,14,669,54,0,201,2,0.18947,2125,female,23,5,right,1,0,0,,Not sure,unsure,no response,50,50,50
101,0,14,670,8,0,247,2,0.34882,2125,female,23,5,right,1,0,0,,Not sure,unsure,no response,50,50,50
101,0,14,671,38,0,217,2,0.24573,2125,female,23,5,right,1,0,0,,Not sure,unsure,no response,50,50,50
101,0,14,672,12,0,243,2,0.25116,2125,female,23,5,right,1,0,0,,Not sure,unsure,no response,50,50,50
101,0,14,673,24,0,231,2,0.27159,2125,female,23,5,right,1,0,0,,Not sure,unsure,no response,50,50,50
101,0,14,674,2,0,253,2,0.28356,2125,female,23,5,right,1,0,0,,Not sure,unsure,no response,50,50,50
101,0,14,675,25,0,230,2,0.28669,2125,female,23,5,right,1,0,0,,Not sure,unsure,no response,50,50,50
101,0,14,676,90,0,165,1,0.20976,2125,female,23,5,right,1,0,0,,Not sure,unsure,no response,50,50,50
101,0,14,677,36,0,219,2,0.24038,2125,female,23,5,right,1,0,0,,Not sure,unsure,no response,50,50,50
101,0,14,678,42,0,213,2,0.79771,2125,female,23,5,right,1,0,0,,Not sure,unsure,no response,50,50,50
101,0,14,679,6,0,249,2,0.23581,2125,female,23,5,right,1,0,0,,Not sure,unsure,no response,50,50,50
101,0,14,680,19,0,236,2,0.69706,2125,female,23,5,right,1,0,0,,Not sure,unsure,no response,50,50,50
101,0,14,681,23,0,232,2,0.25946,2125,female,23,5,right,1,0,0,,Not sure,unsure,no response,50,50,50
101,0,14,682,67,0,188,1,0.33599,2125,female,23,5,right,1,0,0,,Not sure,unsure,no response,50,50,50
101,0,14,683,62,0,193,1,0.28903,2125,female,23,5,right,1,0,0,,Not sure,unsure,no response,50,50,50
101,0,14,684,84,0,171,1,0.22818,2125,female,23,5,right,1,0,0,,Not sure,unsure,no response,50,50,50
101,0,14,685,14,0,241,2,0.2261,2125,female,23,5,right,1,0,0,,Not sure,unsure,no response,50,50,50
101,0,14,686,92,0,163,1,0.22396,2125,female,23,5,right,1,0,0,,Not sure,unsure,no response,50,50,50
101,0,14,687,44,0,211,2,0.21413,2125,female,23,5,right,1,0,0,,Not sure,unsure,no response,50,50,50
101,0,14,688,94,0,161,1,0.42071,2125,female,23,5,right,1,0,0,,Not sure,unsure,no response,50,50,50
101,0,14,689,56,0,199,2,1.5862,2125,female,23,5,right,1,0,0,,Not sure,unsure,no response,50,50,50
101,0,14,690,82,0,173,1,0.48682,2125,female,23,5,right,1,0,0,,Not sure,unsure,no response,50,50,50
101,0,14,691,28,0,227,2,0.32965,2125,female,23,5,right,1,0,0,,Not sure,unsure,no response,50,50,50
101,0,14,692,51,0,204,2,0.96334,2125,female,23,5,right,1,0,0,,Not sure,unsure,no response,50,50,50
101,0,14,693,35,0,220,2,0.41862,2125,female,23,5,right,1,0,0,,Not sure,unsure,no response,50,50,50
101,0,14,694,79,0,176,1,0.28814,2125,female,23,5,right,1,0,0,,Not sure,unsure,no response,50,50,50
101,0,14,695,60,0,195,2,0.75534,2125,female,23,5,right,1,0,0,,Not sure,unsure,no response,50,50,50
101,0,14,696,93,0,162,1,0.39482,2125,female,23,5,right,1,0,0,,Not sure,unsure,no response,50,50,50
101,0,14,697,91,0,164,1,0.23376,2125,female,23,5,right,1,0,0,,Not sure,unsure,no response,50,50,50
101,0,14,698,100,0,155,1,0.61513,2125,female,23,5,right,1,0,0,,Not sure,unsure,no response,50,50,50
101,0,14,699,71,0,184,1,4.2847,2125,female,23,5,right,1,0,0,,Not sure,unsure,no response,50,50,50
101,0,14,700,97,0,158,1,0.23313,2125,female,23,5,right,1,0,0,,Not sure,unsure,no response,50,50,50
101,0,14,701,32,0,223,2,0.19834,2125,female,23,5,right,1,0,0,,Not sure,unsure,no response,50,50,50
101,0,14,702,26,0,229,2,0.25355,2125,female,23,5,right,1,0,0,,Not sure,unsure,no response,50,50,50
101,0,14,703,87,0,168,1,0.12223,2125,female,23,5,right,1,0,0,,Not sure,unsure,no response,50,50,50
101,0,14,704,57,0,198,2,0.84432,2125,female,23,5,right,1,0,0,,Not sure,unsure,no response,50,50,50
101,0,14,705,65,0,190,2,0.61639,2125,female,23,5,right,1,0,0,,Not sure,unsure,no response,50,50,50
101,0,14,706,69,0,186,1,0.80559,2125,female,23,5,right,1,0,0,,Not sure,unsure,no response,50,50,50
101,0,14,707,39,0,216,2,0.25108,2125,female,23,5,right,1,0,0,,Not sure,unsure,no response,50,50,50
101,0,14,708,22,0,233,2,0.23166,2125,female,23,5,right,1,0,0,,Not sure,unsure,no response,50,50,50
101,0,14,709,10,0,245,2,0.1096,2125,female,23,5,right,1,0,0,,Not sure,unsure,no response,50,50,50
101,0,14,710,21,0,234,2,0.20039,2125,female,23,5,right,1,0,0,,Not sure,unsure,no response,50,50,50
101,0,15,711,63,0,192,2,1.2405,2125,female,23,5,right,1,0,0,,Not sure,unsure,no response,50,50,50
101,0,15,712,58,0,197,2,0.24388,2125,female,23,5,right,1,0,0,,Not sure,unsure,no response,50,50,50
101,0,15,713,48,0,207,2,0.000181,2125,female,23,5,right,1,0,0,,Not sure,unsure,no response,50,50,50
101,0,15,714,98,0,157,1,0.19216,2125,female,23,5,right,1,0,0,,Not sure,unsure,no response,50,50,50
101,0,15,715,16,0,239,2,0.27148,2125,female,23,5,right,1,0,0,,Not sure,unsure,no response,50,50,50
101,0,15,716,10,0,245,2,0.2514,2125,female,23,5,right,1,0,0,,Not sure,unsure,no response,50,50,50
101,0,15,717,59,0,196,2,0.37587,2125,female,23,5,right,1,0,0,,Not sure,unsure,no response,50,50,50
101,0,15,718,94,0,161,1,0.11154,2125,female,23,5,right,1,0,0,,Not sure,unsure,no response,50,50,50
101,0,15,719,61,0,194,2,0.25038,2125,female,23,5,right,1,0,0,,Not sure,unsure,no response,50,50,50
101,0,15,720,80,0,175,1,0.27887,2125,female,23,5,right,1,0,0,,Not sure,unsure,no response,50,50,50
101,0,15,721,31,0,224,2,0.16282,2125,female,23,5,right,1,0,0,,Not sure,unsure,no response,50,50,50
101,0,15,722,73,0,182,1,0.13956,2125,female,23,5,right,1,0,0,,Not sure,unsure,no response,50,50,50
101,0,15,723,41,0,214,2,0.037067,2125,female,23,5,right,1,0,0,,Not sure,unsure,no response,50,50,50
101,0,15,724,50,0,205,2,0.17853,2125,female,23,5,right,1,0,0,,Not sure,unsure,no response,50,50,50
101,0,15,725,95,0,160,1,0.12247,2125,female,23,5,right,1,0,0,,Not sure,unsure,no response,50,50,50
101,0,15,726,4,0,251,2,0.19667,2125,female,23,5,right,1,0,0,,Not sure,unsure,no response,50,50,50
101,0,15,727,3,0,252,2,0.21207,2125,female,23,5,right,1,0,0,,Not sure,unsure,no response,50,50,50
101,0,15,728,34,0,221,2,0.27462,2125,female,23,5,right,1,0,0,,Not sure,unsure,no response,50,50,50
101,0,15,729,1,0,254,2,0.2466,2125,female,23,5,right,1,0,0,,Not sure,unsure,no response,50,50,50
101,0,15,730,15,0,240,2,0.29173,2125,female,23,5,right,1,0,0,,Not sure,unsure,no response,50,50,50
101,0,15,731,88,0,167,1,0.31091,2125,female,23,5,right,1,0,0,,Not sure,unsure,no response,50,50,50
101,0,15,732,52,0,203,2,0.65739,2125,female,23,5,right,1,0,0,,Not sure,unsure,no response,50,50,50
101,0,15,733,25,0,230,2,0.31717,2125,female,23,5,right,1,0,0,,Not sure,unsure,no response,50,50,50
101,0,15,734,11,0,244,2,0.28695,2125,female,23,5,right,1,0,0,,Not sure,unsure,no response,50,50,50
101,0,15,735,27,0,228,2,0.058045,2125,female,23,5,right,1,0,0,,Not sure,unsure,no response,50,50,50
101,0,15,736,33,0,222,2,0.23893,2125,female,23,5,right,1,0,0,,Not sure,unsure,no response,50,50,50
101,0,15,737,75,0,180,1,0.30006,2125,female,23,5,right,1,0,0,,Not sure,unsure,no response,50,50,50
101,0,15,738,51,0,204,2,0.21465,2125,female,23,5,right,1,0,0,,Not sure,unsure,no response,50,50,50
101,0,15,739,86,0,169,1,0.29328,2125,female,23,5,right,1,0,0,,Not sure,unsure,no response,50,50,50
101,0,15,740,96,0,159,1,0.25642,2125,female,23,5,right,1,0,0,,Not sure,unsure,no response,50,50,50
101,0,15,741,66,0,189,2,0.39716,2125,female,23,5,right,1,0,0,,Not sure,unsure,no response,50,50,50
101,0,15,742,21,0,234,2,0.22781,2125,female,23,5,right,1,0,0,,Not sure,unsure,no response,50,50,50
101,0,15,743,62,0,193,2,0.36994,2125,female,23,5,right,1,0,0,,Not sure,unsure,no response,50,50,50
101,0,15,744,7,0,248,2,0.20951,2125,female,23,5,right,1,0,0,,Not sure,unsure,no response,50,50,50
101,0,15,745,9,0,246,2,0.19213,2125,female,23,5,right,1,0,0,,Not sure,unsure,no response,50,50,50
101,0,15,746,85,0,170,1,0.11946,2125,female,23,5,right,1,0,0,,Not sure,unsure,no response,50,50,50
101,0,15,747,18,0,237,2,0.065609,2125,female,23,5,right,1,0,0,,Not sure,unsure,no response,50,50,50
101,0,15,748,26,0,229,2,0.25374,2125,female,23,5,right,1,0,0,,Not sure,unsure,no response,50,50,50
101,0,15,749,32,0,223,2,0.15439,2125,female,23,5,right,1,0,0,,Not sure,unsure,no response,50,50,50
101,0,15,750,72,0,183,1,0.10713,2125,female,23,5,right,1,0,0,,Not sure,unsure,no response,50,50,50
101,0,15,751,83,0,172,1,0.39001,2125,female,23,5,right,1,0,0,,Not sure,unsure,no response,50,50,50
101,0,15,752,81,0,174,1,0.24492,2125,female,23,5,right,1,0,0,,Not sure,unsure,no response,50,50,50
101,0,15,753,64,0,191,1,0.18615,2125,female,23,5,right,1,0,0,,Not sure,unsure,no response,50,50,50
101,0,15,754,13,0,242,2,0.20937,2125,female,23,5,right,1,0,0,,Not sure,unsure,no response,50,50,50
101,0,15,755,89,0,166,1,0.14421,2125,female,23,5,right,1,0,0,,Not sure,unsure,no response,50,50,50
101,0,15,756,97,0,158,1,0.00014586,2125,female,23,5,right,1,0,0,,Not sure,unsure,no response,50,50,50
101,0,15,757,17,0,238,2,0.15266,2125,female,23,5,right,1,0,0,,Not sure,unsure,no response,50,50,50
101,0,15,758,57,0,198,1,0.4332,2125,female,23,5,right,1,0,0,,Not sure,unsure,no response,50,50,50
101,0,15,759,19,0,236,2,0.11026,2125,female,23,5,right,1,0,0,,Not sure,unsure,no response,50,50,50
101,0,15,760,30,0,225,2,0.48898,2125,female,23,5,right,1,0,0,,Not sure,unsure,no response,50,50,50
101,0,16,761,69,0,186,1,0.82921,2125,female,23,5,right,1,0,0,,Not sure,unsure,no response,50,50,50
101,0,16,762,48,0,207,2,0.61,2125,female,23,5,right,1,0,0,,Not sure,unsure,no response,50,50,50
101,0,16,763,46,0,209,2,0.22405,2125,female,23,5,right,1,0,0,,Not sure,unsure,no response,50,50,50
101,0,16,764,30,0,225,2,0.23778,2125,female,23,5,right,1,0,0,,Not sure,unsure,no response,50,50,50
101,0,16,765,22,0,233,2,0.14716,2125,female,23,5,right,1,0,0,,Not sure,unsure,no response,50,50,50
101,0,16,766,12,0,243,2,0.044382,2125,female,23,5,right,1,0,0,,Not sure,unsure,no response,50,50,50
101,0,16,767,32,0,223,2,0.16209,2125,female,23,5,right,1,0,0,,Not sure,unsure,no response,50,50,50
101,0,16,768,62,0,193,1,0.33094,2125,female,23,5,right,1,0,0,,Not sure,unsure,no response,50,50,50
101,0,16,769,92,0,163,1,0.29253,2125,female,23,5,right,1,0,0,,Not sure,unsure,no response,50,50,50
101,0,16,770,40,0,215,2,0.26364,2125,female,23,5,right,1,0,0,,Not sure,unsure,no response,50,50,50
101,0,16,771,51,0,204,2,0.26828,2125,female,23,5,right,1,0,0,,Not sure,unsure,no response,50,50,50
101,0,16,772,90,0,165,1,0.24814,2125,female,23,5,right,1,0,0,,Not sure,unsure,no response,50,50,50
101,0,16,773,17,0,238,2,0.34939,2125,female,23,5,right,1,0,0,,Not sure,unsure,no response,50,50,50
101,0,16,774,52,0,203,2,0.26169,2125,female,23,5,right,1,0,0,,Not sure,unsure,no response,50,50,50
101,0,16,775,4,0,251,2,0.23426,2125,female,23,5,right,1,0,0,,Not sure,unsure,no response,50,50,50
101,0,16,776,2,0,253,2,0.16761,2125,female,23,5,right,1,0,0,,Not sure,unsure,no response,50,50,50
101,0,16,777,75,0,180,1,0.087554,2125,female,23,5,right,1,0,0,,Not sure,unsure,no response,50,50,50
101,0,16,778,5,0,250,2,0.18704,2125,female,23,5,right,1,0,0,,Not sure,unsure,no response,50,50,50
101,0,16,779,29,0,226,2,0.21037,2125,female,23,5,right,1,0,0,,Not sure,unsure,no response,50,50,50
101,0,16,780,28,0,227,2,0.24105,2125,female,23,5,right,1,0,0,,Not sure,unsure,no response,50,50,50
101,0,16,781,82,0,173,1,0.24629,2125,female,23,5,right,1,0,0,,Not sure,unsure,no response,50,50,50
101,0,16,782,72,0,183,1,0.30754,2125,female,23,5,right,1,0,0,,Not sure,unsure,no response,50,50,50
101,0,16,783,21,0,234,2,0.23802,2125,female,23,5,right,1,0,0,,Not sure,unsure,no response,50,50,50
101,0,16,784,83,0,172,1,0.25923,2125,female,23,5,right,1,0,0,,Not sure,unsure,no response,50,50,50
101,0,16,785,96,0,159,1,0.30377,2125,female,23,5,right,1,0,0,,Not sure,unsure,no response,50,50,50
101,0,16,786,55,0,200,2,0.2422,2125,female,23,5,right,1,0,0,,Not sure,unsure,no response,50,50,50
101,0,16,787,67,0,188,1,0.51143,2125,female,23,5,right,1,0,0,,Not sure,unsure,no response,50,50,50
101,0,16,788,19,0,236,2,0.23361,2125,female,23,5,right,1,0,0,,Not sure,unsure,no response,50,50,50
101,0,16,789,41,0,214,2,0.23065,2125,female,23,5,right,1,0,0,,Not sure,unsure,no response,50,50,50
101,0,16,790,97,0,158,1,0.26071,2125,female,23,5,right,1,0,0,,Not sure,unsure,no response,50,50,50
101,0,16,791,45,0,210,2,0.23336,2125,female,23,5,right,1,0,0,,Not sure,unsure,no response,50,50,50
101,0,16,792,78,0,177,1,0.29449,2125,female,23,5,right,1,0,0,,Not sure,unsure,no response,50,50,50
101,0,16,793,80,0,175,1,0.21774,2125,female,23,5,right,1,0,0,,Not sure,unsure,no response,50,50,50
101,0,16,794,15,0,240,2,0.2318,2125,female,23,5,right,1,0,0,,Not sure,unsure,no response,50,50,50
101,0,16,795,34,0,221,2,0.33377,2125,female,23,5,right,1,0,0,,Not sure,unsure,no response,50,50,50
101,0,16,796,88,0,167,1,0.31062,2125,female,23,5,right,1,0,0,,Not sure,unsure,no response,50,50,50
101,0,16,797,14,0,241,2,0.28909,2125,female,23,5,right,1,0,0,,Not sure,unsure,no response,50,50,50
101,0,16,798,23,0,232,2,0.12422,2125,female,23,5,right,1,0,0,,Not sure,unsure,no response,50,50,50
101,0,16,799,99,0,156,1,0.37418,2125,female,23,5,right,1,0,0,,Not sure,unsure,no response,50,50,50
101,0,16,800,53,0,202,2,0.22992,2125,female,23,5,right,1,0,0,,Not sure,unsure,no response,50,50,50
101,0,16,801,74,0,181,1,0.21989,2125,female,23,5,right,1,0,0,,Not sure,unsure,no response,50,50,50
101,0,16,802,37,0,218,2,0.17791,2125,female,23,5,right,1,0,0,,Not sure,unsure,no response,50,50,50
101,0,16,803,61,0,194,1,0.28187,2125,female,23,5,right,1,0,0,,Not sure,unsure,no response,50,50,50
101,0,16,804,54,0,201,2,0.37372,2125,female,23,5,right,1,0,0,,Not sure,unsure,no response,50,50,50
101,0,16,805,68,0,187,1,0.24546,2125,female,23,5,right,1,0,0,,Not sure,unsure,no response,50,50,50
101,0,16,806,87,0,168,1,0.27466,2125,female,23,5,right,1,0,0,,Not sure,unsure,no response,50,50,50
101,0,16,807,79,0,176,1,0.26243,2125,female,23,5,right,1,0,0,,Not sure,unsure,no response,50,50,50
101,0,16,808,42,0,213,2,0.22703,2125,female,23,5,right,1,0,0,,Not sure,unsure,no response,50,50,50
101,0,16,809,38,0,217,2,0.2969,2125,female,23,5,right,1,0,0,,Not sure,unsure,no response,50,50,50
101,0,16,810,13,0,242,2,0.25218,2125,female,23,5,right,1,0,0,,Not sure,unsure,no response,50,50,50
101,0,17,811,87,0,168,1,0.31699,2125,female,23,5,right,1,0,0,,Not sure,unsure,no response,50,50,50
101,0,17,812,47,0,208,2,0.24675,2125,female,23,5,right,1,0,0,,Not sure,unsure,no response,50,50,50
101,0,17,813,81,0,174,1,0.092085,2125,female,23,5,right,1,0,0,,Not sure,unsure,no response,50,50,50
101,0,17,814,85,0,170,1,0.11953,2125,female,23,5,right,1,0,0,,Not sure,unsure,no response,50,50,50
101,0,17,815,17,0,238,2,0.18574,2125,female,23,5,right,1,0,0,,Not sure,unsure,no response,50,50,50
101,0,17,816,2,0,253,2,0.18503,2125,female,23,5,right,1,0,0,,Not sure,unsure,no response,50,50,50
101,0,17,817,69,0,186,1,0.24839,2125,female,23,5,right,1,0,0,,Not sure,unsure,no response,50,50,50
101,0,17,818,46,0,209,2,0.14954,2125,female,23,5,right,1,0,0,,Not sure,unsure,no response,50,50,50
101,0,17,819,80,0,175,1,0.41432,2125,female,23,5,right,1,0,0,,Not sure,unsure,no response,50,50,50
101,0,17,820,62,0,193,1,0.30852,2125,female,23,5,right,1,0,0,,Not sure,unsure,no response,50,50,50
101,0,17,821,56,0,199,2,0.27097,2125,female,23,5,right,1,0,0,,Not sure,unsure,no response,50,50,50
101,0,17,822,29,0,226,2,0.22683,2125,female,23,5,right,1,0,0,,Not sure,unsure,no response,50,50,50
101,0,17,823,18,0,237,2,0.064863,2125,female,23,5,right,1,0,0,,Not sure,unsure,no response,50,50,50
101,0,17,824,8,0,247,2,0.19777,2125,female,23,5,right,1,0,0,,Not sure,unsure,no response,50,50,50
101,0,17,825,43,0,212,2,0.14098,2125,female,23,5,right,1,0,0,,Not sure,unsure,no response,50,50,50
101,0,17,826,59,0,196,2,0.1585,2125,female,23,5,right,1,0,0,,Not sure,unsure,no response,50,50,50
101,0,17,827,4,0,251,2,0.21524,2125,female,23,5,right,1,0,0,,Not sure,unsure,no response,50,50,50
101,0,17,828,99,0,156,1,0.22187,2125,female,23,5,right,1,0,0,,Not sure,unsure,no response,50,50,50
101,0,17,829,61,0,194,2,0.78773,2125,female,23,5,right,1,0,0,,Not sure,unsure,no response,50,50,50
101,0,17,830,72,0,183,1,0.22596,2125,female,23,5,right,1,0,0,,Not sure,unsure,no response,50,50,50
101,0,17,831,6,0,249,2,0.13589,2125,female,23,5,right,1,0,0,,Not sure,unsure,no response,50,50,50
101,0,17,832,9,0,246,2,0.12925,2125,female,23,5,right,1,0,0,,Not sure,unsure,no response,50,50,50
101,0,17,833,14,0,241,2,0.11553,2125,female,23,5,right,1,0,0,,Not sure,unsure,no response,50,50,50
101,0,17,834,21,0,234,2,0.07762,2125,female,23,5,right,1,0,0,,Not sure,unsure,no response,50,50,50
101,0,17,835,50,0,205,2,0.16185,2125,female,23,5,right,1,0,0,,Not sure,unsure,no response,50,50,50
101,0,17,836,41,0,214,2,0.098738,2125,female,23,5,right,1,0,0,,Not sure,unsure,no response,50,50,50
101,0,17,837,88,0,167,1,0.053404,2125,female,23,5,right,1,0,0,,Not sure,unsure,no response,50,50,50
101,0,17,838,60,0,195,2,0.1143,2125,female,23,5,right,1,0,0,,Not sure,unsure,no response,50,50,50
101,0,17,839,52,0,203,2,0.15718,2125,female,23,5,right,1,0,0,,Not sure,unsure,no response,50,50,50
101,0,17,840,96,0,159,1,0.10992,2125,female,23,5,right,1,0,0,,Not sure,unsure,no response,50,50,50
101,0,17,841,42,0,213,2,0.12874,2125,female,23,5,right,1,0,0,,Not sure,unsure,no response,50,50,50
101,0,17,842,84,0,171,1,0.019002,2125,female,23,5,right,1,0,0,,Not sure,unsure,no response,50,50,50
101,0,17,843,31,0,224,2,0.1131,2125,female,23,5,right,1,0,0,,Not sure,unsure,no response,50,50,50
101,0,17,844,90,0,165,1,0.09192,2125,female,23,5,right,1,0,0,,Not sure,unsure,no response,50,50,50
101,0,17,845,82,0,173,1,0.047586,2125,female,23,5,right,1,0,0,,Not sure,unsure,no response,50,50,50
101,0,17,846,24,0,231,2,0.24524,2125,female,23,5,right,1,0,0,,Not sure,unsure,no response,50,50,50
101,0,17,847,98,0,157,1,0.26631,2125,female,23,5,right,1,0,0,,Not sure,unsure,no response,50,50,50
101,0,17,848,53,0,202,2,0.2223,2125,female,23,5,right,1,0,0,,Not sure,unsure,no response,50,50,50
101,0,17,849,57,0,198,2,0.23622,2125,female,23,5,right,1,0,0,,Not sure,unsure,no response,50,50,50
101,0,17,850,25,0,230,2,0.20147,2125,female,23,5,right,1,0,0,,Not sure,unsure,no response,50,50,50
101,0,17,851,54,0,201,2,0.2161,2125,female,23,5,right,1,0,0,,Not sure,unsure,no response,50,50,50
101,0,17,852,55,0,200,2,0.00016514,2125,female,23,5,right,1,0,0,,Not sure,unsure,no response,50,50,50
101,0,17,853,77,0,178,1,0.22112,2125,female,23,5,right,1,0,0,,Not sure,unsure,no response,50,50,50
101,0,17,854,45,0,210,2,0.20309,2125,female,23,5,right,1,0,0,,Not sure,unsure,no response,50,50,50
101,0,17,855,32,0,223,2,0.10566,2125,female,23,5,right,1,0,0,,Not sure,unsure,no response,50,50,50
101,0,17,856,48,0,207,2,0.15651,2125,female,23,5,right,1,0,0,,Not sure,unsure,no response,50,50,50
101,0,17,857,5,0,250,2,0.00017882,2125,female,23,5,right,1,0,0,,Not sure,unsure,no response,50,50,50
101,0,17,858,68,0,187,1,0.48426,2125,female,23,5,right,1,0,0,,Not sure,unsure,no response,50,50,50
101,0,17,859,35,0,220,2,0.21506,2125,female,23,5,right,1,0,0,,Not sure,unsure,no response,50,50,50
101,0,17,860,30,0,225,2,0.22163,2125,female,23,5,right,1,0,0,,Not sure,unsure,no response,50,50,50
101,0,18,861,46,0,209,2,0.58277,2125,female,23,5,right,1,0,0,,Not sure,unsure,no response,50,50,50
101,0,18,862,11,0,244,2,0.00017478,2125,female,23,5,right,1,0,0,,Not sure,unsure,no response,50,50,50
101,0,18,863,9,0,246,2,0.00019126,2125,female,23,5,right,1,0,0,,Not sure,unsure,no response,50,50,50
101,0,18,864,51,0,204,2,0.31539,2125,female,23,5,right,1,0,0,,Not sure,unsure,no response,50,50,50
101,0,18,865,45,0,210,2,0.22976,2125,female,23,5,right,1,0,0,,Not sure,unsure,no response,50,50,50
101,0,18,866,93,0,162,1,0.099687,2125,female,23,5,right,1,0,0,,Not sure,unsure,no response,50,50,50
101,0,18,867,78,0,177,1,0.16669,2125,female,23,5,right,1,0,0,,Not sure,unsure,no response,50,50,50
101,0,18,868,75,0,180,1,0.08674,2125,female,23,5,right,1,0,0,,Not sure,unsure,no response,50,50,50
101,0,18,869,4,0,251,2,0.14624,2125,female,23,5,right,1,0,0,,Not sure,unsure,no response,50,50,50
101,0,18,870,59,0,196,2,0.36368,2125,female,23,5,right,1,0,0,,Not sure,unsure,no response,50,50,50
101,0,18,871,70,0,185,1,0.316,2125,female,23,5,right,1,0,0,,Not sure,unsure,no response,50,50,50
101,0,18,872,44,0,211,2,0.18976,2125,female,23,5,right,1,0,0,,Not sure,unsure,no response,50,50,50
101,0,18,873,39,0,216,2,0.17297,2125,female,23,5,right,1,0,0,,Not sure,unsure,no response,50,50,50
101,0,18,874,35,0,220,2,0.1252,2125,female,23,5,right,1,0,0,,Not sure,unsure,no response,50,50,50
101,0,18,875,61,0,194,2,0.11139,2125,female,23,5,right,1,0,0,,Not sure,unsure,no response,50,50,50
101,0,18,876,82,0,173,1,0.22605,2125,female,23,5,right,1,0,0,,Not sure,unsure,no response,50,50,50
101,0,18,877,38,0,217,2,0.14403,2125,female,23,5,right,1,0,0,,Not sure,unsure,no response,50,50,50
101,0,18,878,97,0,158,1,0.16152,2125,female,23,5,right,1,0,0,,Not sure,unsure,no response,50,50,50
101,0,18,879,65,0,190,1,0.24221,2125,female,23,5,right,1,0,0,,Not sure,unsure,no response,50,50,50
101,0,18,880,2,0,253,2,0.15942,2125,female,23,5,right,1,0,0,,Not sure,unsure,no response,50,50,50
101,0,18,881,12,0,243,2,0.22425,2125,female,23,5,right,1,0,0,,Not sure,unsure,no response,50,50,50
101,0,18,882,58,0,197,2,0.36612,2125,female,23,5,right,1,0,0,,Not sure,unsure,no response,50,50,50
101,0,18,883,50,0,205,2,0.18965,2125,female,23,5,right,1,0,0,,Not sure,unsure,no response,50,50,50
101,0,18,884,80,0,175,1,0.13321,2125,female,23,5,right,1,0,0,,Not sure,unsure,no response,50,50,50
101,0,18,885,85,0,170,1,0.19854,2125,female,23,5,right,1,0,0,,Not sure,unsure,no response,50,50,50
101,0,18,886,100,0,155,1,0.19786,2125,female,23,5,right,1,0,0,,Not sure,unsure,no response,50,50,50
101,0,18,887,41,0,214,2,0.30935,2125,female,23,5,right,1,0,0,,Not sure,unsure,no response,50,50,50
101,0,18,888,86,0,169,1,0.18367,2125,female,23,5,right,1,0,0,,Not sure,unsure,no response,50,50,50
101,0,18,889,14,0,241,2,0.17495,2125,female,23,5,right,1,0,0,,Not sure,unsure,no response,50,50,50
101,0,18,890,48,0,207,2,0.13513,2125,female,23,5,right,1,0,0,,Not sure,unsure,no response,50,50,50
101,0,18,891,73,0,182,1,0.16838,2125,female,23,5,right,1,0,0,,Not sure,unsure,no response,50,50,50
101,0,18,892,88,0,167,1,0.21655,2125,female,23,5,right,1,0,0,,Not sure,unsure,no response,50,50,50
101,0,18,893,20,0,235,2,0.14238,2125,female,23,5,right,1,0,0,,Not sure,unsure,no response,50,50,50
101,0,18,894,26,0,229,2,0.21576,2125,female,23,5,right,1,0,0,,Not sure,unsure,no response,50,50,50
101,0,18,895,72,0,183,1,0.18978,2125,female,23,5,right,1,0,0,,Not sure,unsure,no response,50,50,50
101,0,18,896,52,0,203,2,0.18113,2125,female,23,5,right,1,0,0,,Not sure,unsure,no response,50,50,50
101,0,18,897,28,0,227,2,0.22118,2125,female,23,5,right,1,0,0,,Not sure,unsure,no response,50,50,50
101,0,18,898,77,0,178,1,0.28319,2125,female,23,5,right,1,0,0,,Not sure,unsure,no response,50,50,50
101,0,18,899,22,0,233,2,0.16639,2125,female,23,5,right,1,0,0,,Not sure,unsure,no response,50,50,50
101,0,18,900,68,0,187,1,0.32619,2125,female,23,5,right,1,0,0,,Not sure,unsure,no response,50,50,50
101,0,18,901,5,0,250,2,0.13614,2125,female,23,5,right,1,0,0,,Not sure,unsure,no response,50,50,50
101,0,18,902,18,0,237,2,0.14546,2125,female,23,5,right,1,0,0,,Not sure,unsure,no response,50,50,50
101,0,18,903,60,0,195,1,0.2189,2125,female,23,5,right,1,0,0,,Not sure,unsure,no response,50,50,50
101,0,18,904,31,0,224,2,0.16875,2125,female,23,5,right,1,0,0,,Not sure,unsure,no response,50,50,50
101,0,18,905,30,0,225,2,0.12093,2125,female,23,5,right,1,0,0,,Not sure,unsure,no response,50,50,50
101,0,18,906,15,0,240,2,0.082922,2125,female,23,5,right,1,0,0,,Not sure,unsure,no response,50,50,50
101,0,18,907,96,0,159,1,0.13463,2125,female,23,5,right,1,0,0,,Not sure,unsure,no response,50,50,50
101,0,18,908,1,0,254,2,0.32003,2125,female,23,5,right,1,0,0,,Not sure,unsure,no response,50,50,50
101,0,18,909,95,0,160,1,0.017885,2125,female,23,5,right,1,0,0,,Not sure,unsure,no response,50,50,50
101,0,18,910,92,0,163,1,0.34408,2125,female,23,5,right,1,0,0,,Not sure,unsure,no response,50,50,50
101,0,19,911,70,0,185,1,1.2276,2125,female,23,5,right,1,0,0,,Not sure,unsure,no response,50,50,50
101,0,19,912,74,0,181,1,0.21569,2125,female,23,5,right,1,0,0,,Not sure,unsure,no response,50,50,50
101,0,19,913,7,0,248,2,0.00018722,2125,female,23,5,right,1,0,0,,Not sure,unsure,no response,50,50,50
101,0,19,914,71,0,184,1,0.0366,2125,female,23,5,right,1,0,0,,Not sure,unsure,no response,50,50,50
101,0,19,915,96,0,159,1,0.11425,2125,female,23,5,right,1,0,0,,Not sure,unsure,no response,50,50,50
101,0,19,916,41,0,214,2,0.0771,2125,female,23,5,right,1,0,0,,Not sure,unsure,no response,50,50,50
101,0,19,917,37,0,218,2,0.097317,2125,female,23,5,right,1,0,0,,Not sure,unsure,no response,50,50,50
101,0,19,918,91,0,164,1,0.10085,2125,female,23,5,right,1,0,0,,Not sure,unsure,no response,50,50,50
101,0,19,919,36,0,219,2,0.079633,2125,female,23,5,right,1,0,0,,Not sure,unsure,no response,50,50,50
101,0,19,920,84,0,171,1,0.059909,2125,female,23,5,right,1,0,0,,Not sure,unsure,no response,50,50,50
101,0,19,921,48,0,207,2,0.048842,2125,female,23,5,right,1,0,0,,Not sure,unsure,no response,50,50,50
101,0,19,922,64,0,191,1,0.13366,2125,female,23,5,right,1,0,0,,Not sure,unsure,no response,50,50,50
101,0,19,923,95,0,160,1,9.49E-05,2125,female,23,5,right,1,0,0,,Not sure,unsure,no response,50,50,50
101,0,19,924,54,0,201,2,0.00018224,2125,female,23,5,right,1,0,0,,Not sure,unsure,no response,50,50,50
101,0,19,925,17,0,238,2,0.077269,2125,female,23,5,right,1,0,0,,Not sure,unsure,no response,50,50,50
101,0,19,926,30,0,225,2,0.11344,2125,female,23,5,right,1,0,0,,Not sure,unsure,no response,50,50,50
101,0,19,927,1,0,254,2,0.14028,2125,female,23,5,right,1,0,0,,Not sure,unsure,no response,50,50,50
101,0,19,928,87,0,168,1,0.085629,2125,female,23,5,right,1,0,0,,Not sure,unsure,no response,50,50,50
101,0,19,929,57,0,198,2,0.14535,2125,female,23,5,right,1,0,0,,Not sure,unsure,no response,50,50,50
101,0,19,930,77,0,178,1,0.07473,2125,female,23,5,right,1,0,0,,Not sure,unsure,no response,50,50,50
101,0,19,931,45,0,210,2,0.094945,2125,female,23,5,right,1,0,0,,Not sure,unsure,no response,50,50,50
101,0,19,932,76,0,179,1,0.082462,2125,female,23,5,right,1,0,0,,Not sure,unsure,no response,50,50,50
101,0,19,933,39,0,216,2,0.086011,2125,female,23,5,right,1,0,0,,Not sure,unsure,no response,50,50,50
101,0,19,934,19,0,236,2,0.18542,2125,female,23,5,right,1,0,0,,Not sure,unsure,no response,50,50,50
101,0,19,935,80,0,175,1,0.00016856,2125,female,23,5,right,1,0,0,,Not sure,unsure,no response,50,50,50
101,0,19,936,31,0,224,2,0.16798,2125,female,23,5,right,1,0,0,,Not sure,unsure,no response,50,50,50
101,0,19,937,23,0,232,2,0.20001,2125,female,23,5,right,1,0,0,,Not sure,unsure,no response,50,50,50
101,0,19,938,25,0,230,2,0.15854,2125,female,23,5,right,1,0,0,,Not sure,unsure,no response,50,50,50
101,0,19,939,93,0,162,1,0.10318,2125,female,23,5,right,1,0,0,,Not sure,unsure,no response,50,50,50
101,0,19,940,34,0,221,2,0.13814,2125,female,23,5,right,1,0,0,,Not sure,unsure,no response,50,50,50
101,0,19,941,8,0,247,2,0.075556,2125,female,23,5,right,1,0,0,,Not sure,unsure,no response,50,50,50
101,0,19,942,59,0,196,2,0.14386,2125,female,23,5,right,1,0,0,,Not sure,unsure,no response,50,50,50
101,0,19,943,11,0,244,2,0.089176,2125,female,23,5,right,1,0,0,,Not sure,unsure,no response,50,50,50
101,0,19,944,16,0,239,2,0.15661,2125,female,23,5,right,1,0,0,,Not sure,unsure,no response,50,50,50
101,0,19,945,85,0,170,1,0.093666,2125,female,23,5,right,1,0,0,,Not sure,unsure,no response,50,50,50
101,0,19,946,20,0,235,2,0.23302,2125,female,23,5,right,1,0,0,,Not sure,unsure,no response,50,50,50
101,0,19,947,90,0,165,1,0.36614,2125,female,23,5,right,1,0,0,,Not sure,unsure,no response,50,50,50
101,0,19,948,55,0,200,2,0.47787,2125,female,23,5,right,1,0,0,,Not sure,unsure,no response,50,50,50
101,0,19,949,61,0,194,1,0.23337,2125,female,23,5,right,1,0,0,,Not sure,unsure,no response,50,50,50
101,0,19,950,67,0,188,1,0.15065,2125,female,23,5,right,1,0,0,,Not sure,unsure,no response,50,50,50
101,0,19,951,53,0,202,2,0.22343,2125,female,23,5,right,1,0,0,,Not sure,unsure,no response,50,50,50
101,0,19,952,56,0,199,2,0.29332,2125,female,23,5,right,1,0,0,,Not sure,unsure,no response,50,50,50
101,0,19,953,62,0,193,2,0.53641,2125,female,23,5,right,1,0,0,,Not sure,unsure,no response,50,50,50
101,0,19,954,13,0,242,2,0.21712,2125,female,23,5,right,1,0,0,,Not sure,unsure,no response,50,50,50
101,0,19,955,42,0,213,2,0.00018971,2125,female,23,5,right,1,0,0,,Not sure,unsure,no response,50,50,50
101,0,19,956,29,0,226,2,0.062154,2125,female,23,5,right,1,0,0,,Not sure,unsure,no response,50,50,50
101,0,19,957,63,0,192,1,0.30691,2125,female,23,5,right,1,0,0,,Not sure,unsure,no response,50,50,50
101,0,19,958,14,0,241,2,0.1413,2125,female,23,5,right,1,0,0,,Not sure,unsure,no response,50,50,50
101,0,19,959,6,0,249,2,0.20706,2125,female,23,5,right,1,0,0,,Not sure,unsure,no response,50,50,50
101,0,19,960,33,0,222,2,0.1255,2125,female,23,5,right,1,0,0,,Not sure,unsure,no response,50,50,50
101,0,20,961,63,0,192,1,0.61496,2125,female,23,5,right,1,0,0,,Not sure,unsure,no response,50,50,50
101,0,20,962,95,0,160,1,0.11696,2125,female,23,5,right,1,0,0,,Not sure,unsure,no response,50,50,50
101,0,20,963,31,0,224,2,0.11114,2125,female,23,5,right,1,0,0,,Not sure,unsure,no response,50,50,50
101,0,20,964,27,0,228,2,0.025977,2125,female,23,5,right,1,0,0,,Not sure,unsure,no response,50,50,50
101,0,20,965,5,0,250,2,0.10433,2125,female,23,5,right,1,0,0,,Not sure,unsure,no response,50,50,50
101,0,20,966,52,0,203,2,0.21909,2125,female,23,5,right,1,0,0,,Not sure,unsure,no response,50,50,50
101,0,20,967,57,0,198,2,0.2971,2125,female,23,5,right,1,0,0,,Not sure,unsure,no response,50,50,50
101,0,20,968,6,0,249,2,0.12425,2125,female,23,5,right,1,0,0,,Not sure,unsure,no response,50,50,50
101,0,20,969,56,0,199,2,0.50232,2125,female,23,5,right,1,0,0,,Not sure,unsure,no response,50,50,50
101,0,20,970,81,0,174,1,0.12039,2125,female,23,5,right,1,0,0,,Not sure,unsure,no response,50,50,50
101,0,20,971,58,0,197,2,0.21852,2125,female,23,5,right,1,0,0,,Not sure,unsure,no response,50,50,50
101,0,20,972,72,0,183,1,0.18461,2125,female,23,5,right,1,0,0,,Not sure,unsure,no response,50,50,50
101,0,20,973,32,0,223,2,0.095791,2125,female,23,5,right,1,0,0,,Not sure,unsure,no response,50,50,50
101,0,20,974,44,0,211,2,0.21937,2125,female,23,5,right,1,0,0,,Not sure,unsure,no response,50,50,50
101,0,20,975,53,0,202,2,0.089308,2125,female,23,5,right,1,0,0,,Not sure,unsure,no response,50,50,50
101,0,20,976,41,0,214,2,0.13282,2125,female,23,5,right,1,0,0,,Not sure,unsure,no response,50,50,50
101,0,20,977,94,0,161,1,0.14232,2125,female,23,5,right,1,0,0,,Not sure,unsure,no response,50,50,50
101,0,20,978,65,0,190,2,0.00013684,2125,female,23,5,right,1,0,0,,Not sure,unsure,no response,50,50,50
101,0,20,979,37,0,218,2,0.23078,2125,female,23,5,right,1,0,0,,Not sure,unsure,no response,50,50,50
101,0,20,980,16,0,239,2,0.17273,2125,female,23,5,right,1,0,0,,Not sure,unsure,no response,50,50,50
101,0,20,981,100,0,155,1,0.1727,2125,female,23,5,right,1,0,0,,Not sure,unsure,no response,50,50,50
101,0,20,982,78,0,177,1,0.26868,2125,female,23,5,right,1,0,0,,Not sure,unsure,no response,50,50,50
101,0,20,983,45,0,210,2,0.23258,2125,female,23,5,right,1,0,0,,Not sure,unsure,no response,50,50,50
101,0,20,984,80,0,175,1,0.31767,2125,female,23,5,right,1,0,0,,Not sure,unsure,no response,50,50,50
101,0,20,985,60,0,195,2,0.22343,2125,female,23,5,right,1,0,0,,Not sure,unsure,no response,50,50,50
101,0,20,986,20,0,235,2,0.10944,2125,female,23,5,right,1,0,0,,Not sure,unsure,no response,50,50,50
101,0,20,987,15,0,240,2,0.29634,2125,female,23,5,right,1,0,0,,Not sure,unsure,no response,50,50,50
101,0,20,988,28,0,227,2,0.12347,2125,female,23,5,right,1,0,0,,Not sure,unsure,no response,50,50,50
101,0,20,989,50,0,205,2,0.18963,2125,female,23,5,right,1,0,0,,Not sure,unsure,no response,50,50,50
101,0,20,990,43,0,212,2,0.39691,2125,female,23,5,right,1,0,0,,Not sure,unsure,no response,50,50,50
101,0,20,991,61,0,194,1,0.32386,2125,female,23,5,right,1,0,0,,Not sure,unsure,no response,50,50,50
101,0,20,992,49,0,206,2,0.14974,2125,female,23,5,right,1,0,0,,Not sure,unsure,no response,50,50,50
101,0,20,993,85,0,170,1,0.15039,2125,female,23,5,right,1,0,0,,Not sure,unsure,no response,50,50,50
101,0,20,994,62,0,193,2,0.58309,2125,female,23,5,right,1,0,0,,Not sure,unsure,no response,50,50,50
101,0,20,995,9,0,246,2,0.14966,2125,female,23,5,right,1,0,0,,Not sure,unsure,no response,50,50,50
101,0,20,996,67,0,188,1,0.2465,2125,female,23,5,right,1,0,0,,Not sure,unsure,no response,50,50,50
101,0,20,997,97,0,158,1,0.1877,2125,female,23,5,right,1,0,0,,Not sure,unsure,no response,50,50,50
101,0,20,998,54,0,201,2,0.25097,2125,female,23,5,right,1,0,0,,Not sure,unsure,no response,50,50,50
101,0,20,999,96,0,159,1,0.047469,2125,female,23,5,right,1,0,0,,Not sure,unsure,no response,50,50,50
101,0,20,1000,89,0,166,1,0.069197,2125,female,23,5,right,1,0,0,,Not sure,unsure,no response,50,50,50
101,0,20,1001,2,0,253,2,0.03344,2125,female,23,5,right,1,0,0,,Not sure,unsure,no response,50,50,50
101,0,20,1002,17,0,238,2,0.19098,2125,female,23,5,right,1,0,0,,Not sure,unsure,no response,50,50,50
101,0,20,1003,13,0,242,2,0.30228,2125,female,23,5,right,1,0,0,,Not sure,unsure,no response,50,50,50
101,0,20,1004,36,0,219,2,0.1287,2125,female,23,5,right,1,0,0,,Not sure,unsure,no response,50,50,50
