participant,condition,block,trial,face,response,rt,duration,gender,age,ease_overall,handed,glasses,colorvis,faceblind,english,langs,difficulty_over_time,did_freq_change,freq1,freq2,freq3
101,1,0,1,28,1,1.0961,1668,male,21,5,0,1,1,no,1,,harder,stable,12,14,7
101,1,0,2,16,1,0.33748,1668,male,21,5,0,1,1,no,1,,harder,stable,12,14,7
101,1,0,3,56,2,0.14516,1668,male,21,5,0,1,1,no,1,,harder,stable,12,14,7
101,1,0,4,37,1,0.41724,1668,male,21,5,0,1,1,no,1,,harder,stable,12,14,7
101,1,0,5,20,1,0.14135,1668,male,21,5,0,1,1,no,1,,harder,stable,12,14,7
101,1,0,6,55,2,0.27805,1668,male,21,5,0,1,1,no,1,,harder,stable,12,14,7
101,1,0,7,3,1,0.017198,1668,male,21,5,0,1,1,no,1,,harder,stable,12,14,7
101,1,0,8,42,1,0.15886,1668,male,21,5,0,1,1,no,1,,harder,stable,12,14,7
101,1,0,9,15,1,0.000105,1668,male,21,5,0,1,1,no,1,,harder,stable,12,14,7
101,1,0,10,39,1,0.092526,1668,male,21,5,0,1,1,no,1,,harder,stable,12,14,7
101,1,1,11,57,2,0.079085,1668,male,21,5,0,1,1,no,1,,harder,stable,12,14,7
101,1,1,12,11,1,0.38658,1668,male,21,5,0,1,1,no,1,,harder,stable,12,14,7
101,1,1,13,47,2,0.4088,1668,male,21,5,0,1,1,no,1,,harder,stable,12,14,7
101,1,1,14,25,1,0.69377,1668,male,21,5,0,1,1,no,1,,harder,stable,12,14,7
101,1,1,15,59,2,0.36666,1668,male,21,5,0,1,1,no,1,,harder,stable,12,14,7
101,1,1,16,56,2,0.44496,1668,male,21,5,0,1,1,no,1,,harder,stable,12,14,7
101,1,1,17,48,2,0.44906,1668,male,21,5,0,1,1,no,1,,harder,stable,12,14,7
101,1,1,18,8,1,0.17263,1668,male,21,5,0,1,1,no,1,,harder,stable,12,14,7
101,1,1,19,32,1,0.41986,1668,male,21,5,0,1,1,no,1,,harder,stable,12,14,7
101,1,1,20,30,1,0.18404,1668,male,21,5,0,1,1,no,1,,harder,stable,12,14,7
101,1,1,21,60,2,0.43797,1668,male,21,5,0,1,1,no,1,,harder,stable,12,14,7
101,1,1,22,18,1,0.15405,1668,male,21,5,0,1,1,no,1,,harder,stable,12,14,7
101,1,1,23,43,2,0.70618,1668,male,21,5,0,1,1,no,1,,harder,stable,12,14,7
101,1,1,24,6,1,0.46724,1668,male,21,5,0,1,1,no,1,,harder,stable,12,14,7
101,1,1,25,3,1,0.64528,1668,male,21,5,0,1,1,no,1,,harder,stable,12,14,7
101,1,1,26,39,1,0.62438,1668,male,21,5,0,1,1,no,1,,harder,stable,12,14,7
101,1,1,27,58,2,0.42076,1668,male,21,5,0,1,1,no,1,,harder,stable,12,14,7
101,1,1,28,28,1,0.32907,1668,male,21,5,0,1,1,no,1,,harder,stable,12,14,7
101,1,1,29,52,2,0.56187,1668,male,21,5,0,1,1,no,1,,harder,stable,12,14,7
101,1,1,30,17,1,0.30458,1668,male,21,5,0,1,1,no,1,,harder,stable,12,14,7
101,1,1,31,13,1,0.69763,1668,male,21,5,0,1,1,no,1,,harder,stable,12,14,7
101,1,1,32,46,2,0.69141,1668,male,21,5,0,1,1,no,1,,harder,stable,12,14,7
101,1,1,33,10,1,0.4043,1668,male,21,5,0,1,1,no,1,,harder,stable,12,14,7
101,1,1,34,14,1,0.32114,1668,male,21,5,0,1,1,no,1,,harder,stable,12,14,7
101,1,1,35,9,1,0.13822,1668,male,21,5,0,1,1,no,1,,harder,stable,12,14,7
101,1,1,36,24,1,0.23489,1668,male,21,5,0,1,1,no,1,,harder,stable,12,14,7
101,1,1,37,20,1,0.67933,1668,male,21,5,0,1,1,no,1,,harder,stable,12,14,7
101,1,1,38,38,2,0.5211,1668,male,21,5,0,1,1,no,1,,harder,stable,12,14,7
101,1,1,39,22,1,0.66515,1668,male,21,5,0,1,1,no,1,,harder,stable,12,14,7
101,1,1,40,44,2,0.71623,1668,male,21,5,0,1,1,no,1,,harder,stable,12,14,7
101,1,1,41,41,1,0.66912,1668,male,21,5,0,1,1,no,1,,harder,stable,12,14,7
101,1,1,42,54,2,0.91082,1668,male,21,5,0,1,1,no,1,,harder,stable,12,14,7
101,1,1,43,55,2,0.53462,1668,male,21,5,0,1,1,no,1,,harder,stable,12,14,7
101,1,1,44,27,1,0.4707,1668,male,21,5,0,1,1,no,1,,harder,stable,12,14,7
101,1,1,45,40,1,0.52147,1668,male,21,5,0,1,1,no,1,,harder,stable,12,14,7
101,1,1,46,16,1,0.48134,1668,male,21,5,0,1,1,no,1,,harder,stable,12,14,7
101,1,1,47,45,2,0.14823,1668,male,21,5,0,1,1,no,1,,harder,stable,12,14,7
101,1,1,48,19,1,0.22886,1668,male,21,5,0,1,1,no,1,,harder,stable,12,14,7
101,1,1,49,26,1,0.27351,1668,male,21,5,0,1,1,no,1,,harder,stable,12,14,7
101,1,1,50,53,2,0.26065,1668,male,21,5,0,1,1,no,1,,harder,stable,12,14,7
101,1,1,51,51,2,0.1365,1668,male,21,5,0,1,1,no,1,,harder,stable,12,14,7
101,1,1,52,1,1,0.000202,1668,male,21,5,0,1,1,no,1,,harder,stable,12,14,7
101,1,1,53,5,1,0.000186,1668,male,21,5,0,1,1,no,1,,harder,stable,12,14,7
101,1,1,54,21,1,0.000186,1668,male,21,5,0,1,1,no,1,,harder,stable,12,14,7
101,1,1,55,4,1,0.001459,1668,male,21,5,0,1,1,no,1,,harder,stable,12,14,7
101,1,1,56,12,1,0.095625,1668,male,21,5,0,1,1,no,1,,harder,stable,12,14,7
101,1,1,57,33,1,0.50586,1668,male,21,5,0,1,1,no,1,,harder,stable,12,14,7
101,1,1,58,35,1,0.18725,1668,male,21,5,0,1,1,no,1,,harder,stable,12,14,7
101,1,1,59,36,1,0.17708,1668,male,21,5,0,1,1,no,1,,harder,stable,12,14,7
101,1,1,60,7,1,0.079896,1668,male,21,5,0,1,1,no,1,,harder,stable,12,14,7
101,1,2,61,44,2,0.19812,1668,male,21,5,0,1,1,no,1,,harder,stable,12,14,7
101,1,2,62,18,1,0.000188,1668,male,21,5,0,1,1,no,1,,harder,stable,12,14,7
101,1,2,63,23,1,0.2984,1668,male,21,5,0,1,1,no,1,,harder,stable,12,14,7
101,1,2,64,50,2,0.34832,1668,male,21,5,0,1,1,no,1,,harder,stable,12,14,7
101,1,2,65,11,1,0.12389,1668,male,21,5,0,1,1,no,1,,harder,stable,12,14,7
101,1,2,66,43,2,0.1566,1668,male,21,5,0,1,1,no,1,,harder,stable,12,14,7
101,1,2,67,33,1,0.051884,1668,male,21,5,0,1,1,no,1,,harder,stable,12,14,7
101,1,2,68,26,1,0.000186,1668,male,21,5,0,1,1,no,1,,harder,stable,12,14,7
101,1,2,69,8,1,0.000185,1668,male,21,5,0,1,1,no,1,,harder,stable,12,14,7
101,1,2,70,57,2,0.77207,1668,male,21,5,0,1,1,no,1,,harder,stable,12,14,7
101,1,2,71,9,1,0.19428,1668,male,21,5,0,1,1,no,1,,harder,stable,12,14,7
101,1,2,72,55,2,0.4482,1668,male,21,5,0,1,1,no,1,,harder,stable,12,14,7
101,1,2,73,51,1,0.38037,1668,male,21,5,0,1,1,no,1,,harder,stable,12,14,7
101,1,2,74,30,1,0.018684,1668,male,21,5,0,1,1,no,1,,harder,stable,12,14,7
101,1,2,75,2,1,0.15216,1668,male,21,5,0,1,1,no,1,,harder,stable,12,14,7
101,1,2,76,6,1,0.000187,1668,male,21,5,0,1,1,no,1,,harder,stable,12,14,7
101,1,2,77,56,2,0.52601,1668,male,21,5,0,1,1,no,1,,harder,stable,12,14,7
101,1,2,78,27,1,0.66187,1668,male,21,5,0,1,1,no,1,,harder,stable,12,14,7
101,1,2,79,35,1,0.37685,1668,male,21,5,0,1,1,no,1,,harder,stable,12,14,7
101,1,2,80,29,1,9.50E-05,1668,male,21,5,0,1,1,no,1,,harder,stable,12,14,7
101,1,2,81,48,2,0.54083,1668,male,21,5,0,1,1,no,1,,harder,stable,12,14,7
101,1,2,82,45,1,0.52418,1668,male,21,5,0,1,1,no,1,,harder,stable,12,14,7
101,1,2,83,54,2,0.044082,1668,male,21,5,0,1,1,no,1,,harder,stable,12,14,7
101,1,2,84,47,1,0.23233,1668,male,21,5,0,1,1,no,1,,harder,stable,12,14,7
101,1,2,85,17,1,0.00019,1668,male,21,5,0,1,1,no,1,,harder,stable,12,14,7
101,1,2,86,16,1,0.000194,1668,male,21,5,0,1,1,no,1,,harder,stable,12,14,7
101,1,2,87,31,1,0.1841,1668,male,21,5,0,1,1,no,1,,harder,stable,12,14,7
101,1,2,88,38,1,0.13392,1668,male,21,5,0,1,1,no,1,,harder,stable,12,14,7
101,1,2,89,49,2,0.55809,1668,male,21,5,0,1,1,no,1,,harder,stable,12,14,7
101,1,2,90,25,1,0.013404,1668,male,21,5,0,1,1,no,1,,harder,stable,12,14,7
101,1,2,91,19,1,9.50E-05,1668,male,21,5,0,1,1,no,1,,harder,stable,12,14,7
101,1,2,92,15,1,0.000188,1668,male,21,5,0,1,1,no,1,,harder,stable,12,14,7
101,1,2,93,12,1,0.000186,1668,male,21,5,0,1,1,no,1,,harder,stable,12,14,7
101,1,2,94,13,1,0.32458,1668,male,21,5,0,1,1,no,1,,harder,stable,12,14,7
101,1,2,95,1,1,0.33288,1668,male,21,5,0,1,1,no,1,,harder,stable,12,14,7
101,1,2,96,46,1,0.26864,1668,male,21,5,0,1,1,no,1,,harder,stable,12,14,7
101,1,2,97,20,1,0.000183,1668,male,21,5,0,1,1,no,1,,harder,stable,12,14,7
101,1,2,98,53,2,0.000189,1668,male,21,5,0,1,1,no,1,,harder,stable,12,14,7
101,1,2,99,28,1,0.000188,1668,male,21,5,0,1,1,no,1,,harder,stable,12,14,7
101,1,2,100,37,1,0.000185,1668,male,21,5,0,1,1,no,1,,harder,stable,12,14,7
101,1,2,101,42,1,0.3263,1668,male,21,5,0,1,1,no,1,,harder,stable,12,14,7
101,1,2,102,10,1,0.000187,1668,male,21,5,0,1,1,no,1,,harder,stable,12,14,7
101,1,2,103,32,1,0.000185,1668,male,21,5,0,1,1,no,1,,harder,stable,12,14,7
101,1,2,104,14,1,0.000183,1668,male,21,5,0,1,1,no,1,,harder,stable,12,14,7
101,1,2,105,7,1,0.000184,1668,male,21,5,0,1,1,no,1,,harder,stable,12,14,7
101,1,2,106,52,2,0.5264,1668,male,21,5,0,1,1,no,1,,harder,stable,12,14,7
101,1,2,107,4,1,0.000187,1668,male,21,5,0,1,1,no,1,,harder,stable,12,14,7
101,1,2,108,60,2,0.067987,1668,male,21,5,0,1,1,no,1,,harder,stable,12,14,7
101,1,2,109,24,1,0.28694,1668,male,21,5,0,1,1,no,1,,harder,stable,12,14,7
101,1,2,110,41,1,0.37746,1668,male,21,5,0,1,1,no,1,,harder,stable,12,14,7
101,1,3,111,5,1,0.29503,1668,male,21,5,0,1,1,no,1,,harder,stable,12,14,7
101,1,3,112,46,2,0.55278,1668,male,21,5,0,1,1,no,1,,harder,stable,12,14,7
101,1,3,113,26,1,0.27135,1668,male,21,5,0,1,1,no,1,,harder,stable,12,14,7
101,1,3,114,38,1,0.12183,1668,male,21,5,0,1,1,no,1,,harder,stable,12,14,7
101,1,3,115,11,1,0.000187,1668,male,21,5,0,1,1,no,1,,harder,stable,12,14,7
101,1,3,116,27,1,0.13687,1668,male,21,5,0,1,1,no,1,,harder,stable,12,14,7
101,1,3,117,32,1,0.025012,1668,male,21,5,0,1,1,no,1,,harder,stable,12,14,7
101,1,3,118,50,2,0.000184,1668,male,21,5,0,1,1,no,1,,harder,stable,12,14,7
101,1,3,119,37,1,0.044206,1668,male,21,5,0,1,1,no,1,,harder,stable,12,14,7
101,1,3,120,2,1,0.000184,1668,male,21,5,0,1,1,no,1,,harder,stable,12,14,7
101,1,3,121,4,1,0.000187,1668,male,21,5,0,1,1,no,1,,harder,stable,12,14,7
101,1,3,122,17,1,9.40E-05,1668,male,21,5,0,1,1,no,1,,harder,stable,12,14,7
101,1,3,123,49,2,0.05798,1668,male,21,5,0,1,1,no,1,,harder,stable,12,14,7
101,1,3,124,35,2,2.0301,1668,male,21,5,0,1,1,no,1,,harder,stable,12,14,7
101,1,3,125,53,2,0.11188,1668,male,21,5,0,1,1,no,1,,harder,stable,12,14,7
101,1,3,126,40,1,0.56141,1668,male,21,5,0,1,1,no,1,,harder,stable,12,14,7
101,1,3,127,14,1,0.29605,1668,male,21,5,0,1,1,no,1,,harder,stable,12,14,7
101,1,3,128,36,2,0.20245,1668,male,21,5,0,1,1,no,1,,harder,stable,12,14,7
101,1,3,129,20,1,0.000186,1668,male,21,5,0,1,1,no,1,,harder,stable,12,14,7
101,1,3,130,16,1,0.000187,1668,male,21,5,0,1,1,no,1,,harder,stable,12,14,7
101,1,3,131,29,1,9.50E-05,1668,male,21,5,0,1,1,no,1,,harder,stable,12,14,7
101,1,3,132,45,1,0.31395,1668,male,21,5,0,1,1,no,1,,harder,stable,12,14,7
101,1,3,133,33,1,0.000183,1668,male,21,5,0,1,1,no,1,,harder,stable,12,14,7
101,1,3,134,59,2,0.000186,1668,male,21,5,0,1,1,no,1,,harder,stable,12,14,7
101,1,3,135,8,1,0.016404,1668,male,21,5,0,1,1,no,1,,harder,stable,12,14,7
101,1,3,136,6,1,0.35802,1668,male,21,5,0,1,1,no,1,,harder,stable,12,14,7
101,1,3,137,1,1,0.23764,1668,male,21,5,0,1,1,no,1,,harder,stable,12,14,7
101,1,3,138,23,1,0.46629,1668,male,21,5,0,1,1,no,1,,harder,stable,12,14,7
101,1,3,139,31,2,0.44493,1668,male,21,5,0,1,1,no,1,,harder,stable,12,14,7
101,1,3,140,43,1,0.44899,1668,male,21,5,0,1,1,no,1,,harder,stable,12,14,7
101,1,3,141,22,1,0.24469,1668,male,21,5,0,1,1,no,1,,harder,stable,12,14,7
101,1,3,142,15,1,9.80E-05,1668,male,21,5,0,1,1,no,1,,harder,stable,12,14,7
101,1,3,143,10,1,0.000186,1668,male,21,5,0,1,1,no,1,,harder,stable,12,14,7
101,1,3,144,51,2,0.000185,1668,male,21,5,0,1,1,no,1,,harder,stable,12,14,7
101,1,3,145,7,1,0.25787,1668,male,21,5,0,1,1,no,1,,harder,stable,12,14,7
101,1,3,146,42,1,0.43713,1668,male,21,5,0,1,1,no,1,,harder,stable,12,14,7
101,1,3,147,57,2,0.001362,1668,male,21,5,0,1,1,no,1,,harder,stable,12,14,7
101,1,3,148,21,1,0.007031,1668,male,21,5,0,1,1,no,1,,harder,stable,12,14,7
101,1,3,149,48,2,0.077265,1668,male,21,5,0,1,1,no,1,,harder,stable,12,14,7
101,1,3,150,41,1,0.26416,1668,male,21,5,0,1,1,no,1,,harder,stable,12,14,7
101,1,3,151,55,2,0.13994,1668,male,21,5,0,1,1,no,1,,harder,stable,12,14,7
101,1,3,152,19,1,9.40E-05,1668,male,21,5,0,1,1,no,1,,harder,stable,12,14,7
101,1,3,153,25,1,0.033639,1668,male,21,5,0,1,1,no,1,,harder,stable,12,14,7
101,1,3,154,28,1,0.000182,1668,male,21,5,0,1,1,no,1,,harder,stable,12,14,7
101,1,3,155,24,1,0.043496,1668,male,21,5,0,1,1,no,1,,harder,stable,12,14,7
101,1,3,156,12,1,0.00019,1668,male,21,5,0,1,1,no,1,,harder,stable,12,14,7
101,1,3,157,44,2,0.16526,1668,male,21,5,0,1,1,no,1,,harder,stable,12,14,7
101,1,3,158,52,2,0.061397,1668,male,21,5,0,1,1,no,1,,harder,stable,12,14,7
101,1,3,159,34,2,0.089553,1668,male,21,5,0,1,1,no,1,,harder,stable,12,14,7
101,1,3,160,60,2,0.000188,1668,male,21,5,0,1,1,no,1,,harder,stable,12,14,7
101,1,4,161,3,1,0.000189,1668,male,21,5,0,1,1,no,1,,harder,stable,12,14,7
101,1,4,162,5,1,0.37244,1668,male,21,5,0,1,1,no,1,,harder,stable,12,14,7
101,1,4,163,20,1,9.60E-05,1668,male,21,5,0,1,1,no,1,,harder,stable,12,14,7
101,1,4,164,43,1,0.24044,1668,male,21,5,0,1,1,no,1,,harder,stable,12,14,7
101,1,4,165,49,2,0.052967,1668,male,21,5,0,1,1,no,1,,harder,stable,12,14,7
101,1,4,166,36,1,0.081225,1668,male,21,5,0,1,1,no,1,,harder,stable,12,14,7
101,1,4,167,6,1,0.020043,1668,male,21,5,0,1,1,no,1,,harder,stable,12,14,7
101,1,4,168,4,1,0.000187,1668,male,21,5,0,1,1,no,1,,harder,stable,12,14,7
101,1,4,169,21,2,0.33532,1668,male,21,5,0,1,1,no,1,,harder,stable,12,14,7
101,1,4,170,40,1,0.40695,1668,male,21,5,0,1,1,no,1,,harder,stable,12,14,7
101,1,4,171,47,2,0.18789,1668,male,21,5,0,1,1,no,1,,harder,stable,12,14,7
101,1,4,172,1,1,9.80E-05,1668,male,21,5,0,1,1,no,1,,harder,stable,12,14,7
101,1,4,173,10,1,0.000184,1668,male,21,5,0,1,1,no,1,,harder,stable,12,14,7
101,1,4,174,2,1,0.000187,1668,male,21,5,0,1,1,no,1,,harder,stable,12,14,7
101,1,4,175,58,2,0.20263,1668,male,21,5,0,1,1,no,1,,harder,stable,12,14,7
101,1,4,176,51,2,0.4646,1668,male,21,5,0,1,1,no,1,,harder,stable,12,14,7
101,1,4,177,48,2,0.34731,1668,male,21,5,0,1,1,no,1,,harder,stable,12,14,7
101,1,4,178,27,1,0.003232,1668,male,21,5,0,1,1,no,1,,harder,stable,12,14,7
101,1,4,179,13,1,0.000184,1668,male,21,5,0,1,1,no,1,,harder,stable,12,14,7
101,1,4,180,8,1,0.000183,1668,male,21,5,0,1,1,no,1,,harder,stable,12,14,7
101,1,4,181,38,2,0.000186,1668,male,21,5,0,1,1,no,1,,harder,stable,12,14,7
101,1,4,182,52,2,9.50E-05,1668,male,21,5,0,1,1,no,1,,harder,stable,12,14,7
101,1,4,183,37,1,0.17653,1668,male,21,5,0,1,1,no,1,,harder,stable,12,14,7
101,1,4,184,50,1,0.43186,1668,male,21,5,0,1,1,no,1,,harder,stable,12,14,7
101,1,4,185,56,2,0.39679,1668,male,21,5,0,1,1,no,1,,harder,stable,12,14,7
101,1,4,186,41,2,0.000191,1668,male,21,5,0,1,1,no,1,,harder,stable,12,14,7
101,1,4,187,11,1,0.015956,1668,male,21,5,0,1,1,no,1,,harder,stable,12,14,7
101,1,4,188,33,1,0.19698,1668,male,21,5,0,1,1,no,1,,harder,stable,12,14,7
101,1,4,189,31,1,0.034776,1668,male,21,5,0,1,1,no,1,,harder,stable,12,14,7
101,1,4,190,30,1,9.80E-05,1668,male,21,5,0,1,1,no,1,,harder,stable,12,14,7
101,1,4,191,32,1,0.028674,1668,male,21,5,0,1,1,no,1,,harder,stable,12,14,7
101,1,4,192,39,1,0.000187,1668,male,21,5,0,1,1,no,1,,harder,stable,12,14,7
101,1,4,193,53,2,0.11188,1668,male,21,5,0,1,1,no,1,,harder,stable,12,14,7
101,1,4,194,44,2,0.000189,1668,male,21,5,0,1,1,no,1,,harder,stable,12,14,7
101,1,4,195,59,2,0.000184,1668,male,21,5,0,1,1,no,1,,harder,stable,12,14,7
101,1,4,196,15,1,0.020609,1668,male,21,5,0,1,1,no,1,,harder,stable,12,14,7
101,1,4,197,26,1,9.60E-05,1668,male,21,5,0,1,1,no,1,,harder,stable,12,14,7
101,1,4,198,29,1,0.000185,1668,male,21,5,0,1,1,no,1,,harder,stable,12,14,7
101,1,4,199,57,2,0.004737,1668,male,21,5,0,1,1,no,1,,harder,stable,12,14,7
101,1,4,200,12,1,0.15436,1668,male,21,5,0,1,1,no,1,,harder,stable,12,14,7
101,1,4,201,60,2,0.16962,1668,male,21,5,0,1,1,no,1,,harder,stable,12,14,7
101,1,4,202,9,1,0.10449,1668,male,21,5,0,1,1,no,1,,harder,stable,12,14,7
101,1,4,203,23,1,0.41837,1668,male,21,5,0,1,1,no,1,,harder,stable,12,14,7
101,1,4,204,28,1,0.3993,1668,male,21,5,0,1,1,no,1,,harder,stable,12,14,7
101,1,4,205,22,1,0.000185,1668,male,21,5,0,1,1,no,1,,harder,stable,12,14,7
101,1,4,206,16,1,0.33124,1668,male,21,5,0,1,1,no,1,,harder,stable,12,14,7
101,1,4,207,25,1,0.028289,1668,male,21,5,0,1,1,no,1,,harder,stable,12,14,7
101,1,4,208,14,1,0.000186,1668,male,21,5,0,1,1,no,1,,harder,stable,12,14,7
101,1,4,209,34,1,0.000183,1668,male,21,5,0,1,1,no,1,,harder,stable,12,14,7
101,1,4,210,24,1,0.000185,1668,male,21,5,0,1,1,no,1,,harder,stable,12,14,7
101,1,5,211,42,2,0.36228,1668,male,21,5,0,1,1,no,1,,harder,stable,12,14,7
101,1,5,212,28,1,0.000156,1668,male,21,5,0,1,1,no,1,,harder,stable,12,14,7
101,1,5,213,22,1,0.000188,1668,male,21,5,0,1,1,no,1,,harder,stable,12,14,7
101,1,5,214,57,2,0.10851,1668,male,21,5,0,1,1,no,1,,harder,stable,12,14,7
101,1,5,215,30,1,0.03003,1668,male,21,5,0,1,1,no,1,,harder,stable,12,14,7
101,1,5,216,51,2,0.000186,1668,male,21,5,0,1,1,no,1,,harder,stable,12,14,7
101,1,5,217,1,1,0.009234,1668,male,21,5,0,1,1,no,1,,harder,stable,12,14,7
101,1,5,218,13,1,0.000185,1668,male,21,5,0,1,1,no,1,,harder,stable,12,14,7
101,1,5,219,6,1,1.8851,1668,male,21,5,0,1,1,no,1,,harder,stable,12,14,7
101,1,5,220,9,1,0.000185,1668,male,21,5,0,1,1,no,1,,harder,stable,12,14,7
101,1,5,221,3,1,0.000154,1668,male,21,5,0,1,1,no,1,,harder,stable,12,14,7
101,1,5,222,56,2,0.000189,1668,male,21,5,0,1,1,no,1,,harder,stable,12,14,7
101,1,5,223,9,1,0.000187,1668,male,21,5,0,1,1,no,1,,harder,stable,12,14,7
101,1,5,224,40,2,0.000193,1668,male,21,5,0,1,1,no,1,,harder,stable,12,14,7
101,1,5,225,52,2,0.000113,1668,male,21,5,0,1,1,no,1,,harder,stable,12,14,7
101,1,5,226,29,1,0.000185,1668,male,21,5,0,1,1,no,1,,harder,stable,12,14,7
101,1,5,227,38,1,0.13254,1668,male,21,5,0,1,1,no,1,,harder,stable,12,14,7
101,1,5,228,13,1,0.19685,1668,male,21,5,0,1,1,no,1,,harder,stable,12,14,7
101,1,5,229,9,1,9.50E-05,1668,male,21,5,0,1,1,no,1,,harder,stable,12,14,7
101,1,5,230,43,2,0.34438,1668,male,21,5,0,1,1,no,1,,harder,stable,12,14,7
101,1,5,231,11,1,0.000197,1668,male,21,5,0,1,1,no,1,,harder,stable,12,14,7
101,1,5,232,13,1,0.000187,1668,male,21,5,0,1,1,no,1,,harder,stable,12,14,7
101,1,5,233,3,1,0.000185,1668,male,21,5,0,1,1,no,1,,harder,stable,12,14,7
101,1,5,234,46,2,0.000188,1668,male,21,5,0,1,1,no,1,,harder,stable,12,14,7
101,1,5,235,35,1,0.0551,1668,male,21,5,0,1,1,no,1,,harder,stable,12,14,7
101,1,5,236,20,1,0.14736,1668,male,21,5,0,1,1,no,1,,harder,stable,12,14,7
101,1,5,237,8,1,0.81205,1668,male,21,5,0,1,1,no,1,,harder,stable,12,14,7
101,1,5,238,25,1,0.000183,1668,male,21,5,0,1,1,no,1,,harder,stable,12,14,7
101,1,5,239,11,1,0.000193,1668,male,21,5,0,1,1,no,1,,harder,stable,12,14,7
101,1,5,240,13,1,0.12481,1668,male,21,5,0,1,1,no,1,,harder,stable,12,14,7
101,1,5,241,44,2,0.03759,1668,male,21,5,0,1,1,no,1,,harder,stable,12,14,7
101,1,5,242,50,2,2.3377,1668,male,21,5,0,1,1,no,1,,harder,stable,12,14,7
101,1,5,243,45,2,0.000158,1668,male,21,5,0,1,1,no,1,,harder,stable,12,14,7
101,1,5,244,19,1,0.000187,1668,male,21,5,0,1,1,no,1,,harder,stable,12,14,7
101,1,5,245,28,1,0.24963,1668,male,21,5,0,1,1,no,1,,harder,stable,12,14,7
101,1,5,246,53,2,0.32469,1668,male,21,5,0,1,1,no,1,,harder,stable,12,14,7
101,1,5,247,39,2,0.31707,1668,male,21,5,0,1,1,no,1,,harder,stable,12,14,7
101,1,5,248,16,1,1.6533,1668,male,21,5,0,1,1,no,1,,harder,stable,12,14,7
101,1,5,249,13,1,0.32585,1668,male,21,5,0,1,1,no,1,,harder,stable,12,14,7
101,1,5,250,17,1,0.000151,1668,male,21,5,0,1,1,no,1,,harder,stable,12,14,7
101,1,5,251,28,1,0.035852,1668,male,21,5,0,1,1,no,1,,harder,stable,12,14,7
101,1,5,252,54,2,0.000195,1668,male,21,5,0,1,1,no,1,,harder,stable,12,14,7
101,1,5,253,17,1,9.60E-05,1668,male,21,5,0,1,1,no,1,,harder,stable,12,14,7
101,1,5,254,60,2,0.000185,1668,male,21,5,0,1,1,no,1,,harder,stable,12,14,7
101,1,5,255,20,1,0.000185,1668,male,21,5,0,1,1,no,1,,harder,stable,12,14,7
101,1,5,256,41,2,0.000186,1668,male,21,5,0,1,1,no,1,,harder,stable,12,14,7
101,1,5,257,16,1,9.50E-05,1668,male,21,5,0,1,1,no,1,,harder,stable,12,14,7
101,1,5,258,3,1,0.000185,1668,male,21,5,0,1,1,no,1,,harder,stable,12,14,7
101,1,5,259,49,1,0.39203,1668,male,21,5,0,1,1,no,1,,harder,stable,12,14,7
101,1,5,260,1,1,0.000186,1668,male,21,5,0,1,1,no,1,,harder,stable,12,14,7
101,1,6,261,25,1,0.087219,1668,male,21,5,0,1,1,no,1,,harder,stable,12,14,7
101,1,6,262,13,1,0.000151,1668,male,21,5,0,1,1,no,1,,harder,stable,12,14,7
101,1,6,263,17,1,0.56697,1668,male,21,5,0,1,1,no,1,,harder,stable,12,14,7
101,1,6,264,7,1,0.13295,1668,male,21,5,0,1,1,no,1,,harder,stable,12,14,7
101,1,6,265,1,1,0.000151,1668,male,21,5,0,1,1,no,1,,harder,stable,12,14,7
101,1,6,266,15,1,0.000185,1668,male,21,5,0,1,1,no,1,,harder,stable,12,14,7
101,1,6,267,44,2,0.056253,1668,male,21,5,0,1,1,no,1,,harder,stable,12,14,7
101,1,6,268,41,1,0.083744,1668,male,21,5,0,1,1,no,1,,harder,stable,12,14,7
101,1,6,269,60,2,0.069723,1668,male,21,5,0,1,1,no,1,,harder,stable,12,14,7
101,1,6,270,37,1,0.1534,1668,male,21,5,0,1,1,no,1,,harder,stable,12,14,7
101,1,6,271,8,1,0.000183,1668,male,21,5,0,1,1,no,1,,harder,stable,12,14,7
101,1,6,272,58,2,0.01439,1668,male,21,5,0,1,1,no,1,,harder,stable,12,14,7
101,1,6,273,53,2,0.38867,1668,male,21,5,0,1,1,no,1,,harder,stable,12,14,7
101,1,6,274,57,2,0.018178,1668,male,21,5,0,1,1,no,1,,harder,stable,12,14,7
101,1,6,275,27,1,0.13523,1668,male,21,5,0,1,1,no,1,,harder,stable,12,14,7
101,1,6,276,35,1,0.18316,1668,male,21,5,0,1,1,no,1,,harder,stable,12,14,7
101,1,6,277,7,1,0.000186,1668,male,21,5,0,1,1,no,1,,harder,stable,12,14,7
101,1,6,278,12,1,0.018906,1668,male,21,5,0,1,1,no,1,,harder,stable,12,14,7
101,1,6,279,2,1,0.000185,1668,male,21,5,0,1,1,no,1,,harder,stable,12,14,7
101,1,6,280,25,1,0.14941,1668,male,21,5,0,1,1,no,1,,harder,stable,12,14,7
101,1,6,281,46,1,0.38931,1668,male,21,5,0,1,1,no,1,,harder,stable,12,14,7
101,1,6,282,1,1,0.00019,1668,male,21,5,0,1,1,no,1,,harder,stable,12,14,7
101,1,6,283,5,1,0.000186,1668,male,21,5,0,1,1,no,1,,harder,stable,12,14,7
101,1,6,284,28,1,1.5188,1668,male,21,5,0,1,1,no,1,,harder,stable,12,14,7
101,1,6,285,29,1,0.013125,1668,male,21,5,0,1,1,no,1,,harder,stable,12,14,7
101,1,6,286,27,1,0.000184,1668,male,21,5,0,1,1,no,1,,harder,stable,12,14,7
101,1,6,287,2,1,9.60E-05,1668,male,21,5,0,1,1,no,1,,harder,stable,12,14,7
101,1,6,288,4,1,2.0137,1668,male,21,5,0,1,1,no,1,,harder,stable,12,14,7
101,1,6,289,21,1,0.00019,1668,male,21,5,0,1,1,no,1,,harder,stable,12,14,7
101,1,6,290,12,1,0.48577,1668,male,21,5,0,1,1,no,1,,harder,stable,12,14,7
101,1,6,291,19,1,9.70E-05,1668,male,21,5,0,1,1,no,1,,harder,stable,12,14,7
101,1,6,292,40,1,0.18901,1668,male,21,5,0,1,1,no,1,,harder,stable,12,14,7
101,1,6,293,26,1,0.018742,1668,male,21,5,0,1,1,no,1,,harder,stable,12,14,7
101,1,6,294,13,1,0.000152,1668,male,21,5,0,1,1,no,1,,harder,stable,12,14,7
101,1,6,295,39,1,9.70E-05,1668,male,21,5,0,1,1,no,1,,harder,stable,12,14,7
101,1,6,296,8,1,9.50E-05,1668,male,21,5,0,1,1,no,1,,harder,stable,12,14,7
101,1,6,297,47,2,0.20068,1668,male,21,5,0,1,1,no,1,,harder,stable,12,14,7
101,1,6,298,45,2,0.39048,1668,male,21,5,0,1,1,no,1,,harder,stable,12,14,7
101,1,6,299,28,1,0.34816,1668,male,21,5,0,1,1,no,1,,harder,stable,12,14,7
101,1,6,300,31,1,0.45982,1668,male,21,5,0,1,1,no,1,,harder,stable,12,14,7
101,1,6,301,14,1,0.31927,1668,male,21,5,0,1,1,no,1,,harder,stable,12,14,7
101,1,6,302,22,1,0.000186,1668,male,21,5,0,1,1,no,1,,harder,stable,12,14,7
101,1,6,303,4,1,0.000188,1668,male,21,5,0,1,1,no,1,,harder,stable,12,14,7
101,1,6,304,24,1,0.28345,1668,male,21,5,0,1,1,no,1,,harder,stable,12,14,7
101,1,6,305,10,1,0.32518,1668,male,21,5,0,1,1,no,1,,harder,stable,12,14,7
101,1,6,306,22,1,0.000186,1668,male,21,5,0,1,1,no,1,,harder,stable,12,14,7
101,1,6,307,6,1,0.000192,1668,male,21,5,0,1,1,no,1,,harder,stable,12,14,7
101,1,6,308,5,1,0.48164,1668,male,21,5,0,1,1,no,1,,harder,stable,12,14,7
101,1,6,309,27,1,0.29189,1668,male,21,5,0,1,1,no,1,,harder,stable,12,14,7
101,1,6,310,3,1,0.22214,1668,male,21,5,0,1,1,no,1,,harder,stable,12,14,7
101,1,7,311,32,1,0.00014,1668,male,21,5,0,1,1,no,1,,harder,stable,12,14,7
101,1,7,312,9,1,0.000177,1668,male,21,5,0,1,1,no,1,,harder,stable,12,14,7
101,1,7,313,1,1,9.50E-05,1668,male,21,5,0,1,1,no,1,,harder,stable,12,14,7
101,1,7,314,2,1,9.70E-05,1668,male,21,5,0,1,1,no,1,,harder,stable,12,14,7
101,1,7,315,13,1,0.000186,1668,male,21,5,0,1,1,no,1,,harder,stable,12,14,7
101,1,7,316,25,1,0.000184,1668,male,21,5,0,1,1,no,1,,harder,stable,12,14,7
101,1,7,317,34,1,0.000187,1668,male,21,5,0,1,1,no,1,,harder,stable,12,14,7
101,1,7,318,24,1,0.000199,1668,male,21,5,0,1,1,no,1,,harder,stable,12,14,7
101,1,7,319,35,1,0.000188,1668,male,21,5,0,1,1,no,1,,harder,stable,12,14,7
101,1,7,320,5,1,0.000183,1668,male,21,5,0,1,1,no,1,,harder,stable,12,14,7
101,1,7,321,27,1,0.000191,1668,male,21,5,0,1,1,no,1,,harder,stable,12,14,7
101,1,7,322,10,1,0.000187,1668,male,21,5,0,1,1,no,1,,harder,stable,12,14,7
101,1,7,323,17,1,0.000183,1668,male,21,5,0,1,1,no,1,,harder,stable,12,14,7
101,1,7,324,27,1,0.000187,1668,male,21,5,0,1,1,no,1,,harder,stable,12,14,7
101,1,7,325,14,1,0.000186,1668,male,21,5,0,1,1,no,1,,harder,stable,12,14,7
101,1,7,326,3,1,2.1335,1668,male,21,5,0,1,1,no,1,,harder,stable,12,14,7
101,1,7,327,10,1,0.000188,1668,male,21,5,0,1,1,no,1,,harder,stable,12,14,7
101,1,7,328,19,1,0.12877,1668,male,21,5,0,1,1,no,1,,harder,stable,12,14,7
101,1,7,329,21,1,9.50E-05,1668,male,21,5,0,1,1,no,1,,harder,stable,12,14,7
101,1,7,330,9,1,0.000185,1668,male,21,5,0,1,1,no,1,,harder,stable,12,14,7
101,1,7,331,6,1,1.8615,1668,male,21,5,0,1,1,no,1,,harder,stable,12,14,7
101,1,7,332,60,2,0.062342,1668,male,21,5,0,1,1,no,1,,harder,stable,12,14,7
101,1,7,333,25,1,0.066737,1668,male,21,5,0,1,1,no,1,,harder,stable,12,14,7
101,1,7,334,43,2,0.000183,1668,male,21,5,0,1,1,no,1,,harder,stable,12,14,7
101,1,7,335,51,2,0.000182,1668,male,21,5,0,1,1,no,1,,harder,stable,12,14,7
101,1,7,336,24,1,0.000183,1668,male,21,5,0,1,1,no,1,,harder,stable,12,14,7
101,1,7,337,21,1,0.000188,1668,male,21,5,0,1,1,no,1,,harder,stable,12,14,7
101,1,7,338,10,1,0.000184,1668,male,21,5,0,1,1,no,1,,harder,stable,12,14,7
101,1,7,339,17,1,1.7062,1668,male,21,5,0,1,1,no,1,,harder,stable,12,14,7
101,1,7,340,26,1,0.000189,1668,male,21,5,0,1,1,no,1,,harder,stable,12,14,7
101,1,7,341,28,1,0.000186,1668,male,21,5,0,1,1,no,1,,harder,stable,12,14,7
101,1,7,342,2,1,0.000191,1668,male,21,5,0,1,1,no,1,,harder,stable,12,14,7
101,1,7,343,15,1,9.50E-05,1668,male,21,5,0,1,1,no,1,,harder,stable,12,14,7
101,1,7,344,12,1,0.000183,1668,male,21,5,0,1,1,no,1,,harder,stable,12,14,7
101,1,7,345,19,1,0.000186,1668,male,21,5,0,1,1,no,1,,harder,stable,12,14,7
101,1,7,346,10,1,0.000184,1668,male,21,5,0,1,1,no,1,,harder,stable,12,14,7
101,1,7,347,22,1,0.14603,1668,male,21,5,0,1,1,no,1,,harder,stable,12,14,7
101,1,7,348,49,2,1.9141,1668,male,21,5,0,1,1,no,1,,harder,stable,12,14,7
101,1,7,349,13,1,0.31207,1668,male,21,5,0,1,1,no,1,,harder,stable,12,14,7
101,1,7,350,42,2,0.38582,1668,male,21,5,0,1,1,no,1,,harder,stable,12,14,7
101,1,7,351,12,1,0.1515,1668,male,21,5,0,1,1,no,1,,harder,stable,12,14,7
101,1,7,352,16,1,0.23947,1668,male,21,5,0,1,1,no,1,,harder,stable,12,14,7
101,1,7,353,29,1,0.019314,1668,male,21,5,0,1,1,no,1,,harder,stable,12,14,7
101,1,7,354,15,1,9.50E-05,1668,male,21,5,0,1,1,no,1,,harder,stable,12,14,7
101,1,7,355,22,1,0.000188,1668,male,21,5,0,1,1,no,1,,harder,stable,12,14,7
101,1,7,356,29,1,0.027473,1668,male,21,5,0,1,1,no,1,,harder,stable,12,14,7
101,1,7,357,25,1,0.000175,1668,male,21,5,0,1,1,no,1,,harder,stable,12,14,7
101,1,7,358,9,1,9.70E-05,1668,male,21,5,0,1,1,no,1,,harder,stable,12,14,7
101,1,7,359,21,1,9.60E-05,1668,male,21,5,0,1,1,no,1,,harder,stable,12,14,7
101,1,7,360,3,1,0.000188,1668,male,21,5,0,1,1,no,1,,harder,stable,12,14,7
101,1,8,361,11,1,9.50E-05,1668,male,21,5,0,1,1,no,1,,harder,stable,12,14,7
101,1,8,362,8,1,0.2054,1668,male,21,5,0,1,1,no,1,,harder,stable,12,14,7
101,1,8,363,7,1,9.50E-05,1668,male,21,5,0,1,1,no,1,,harder,stable,12,14,7
101,1,8,364,8,1,1.9928,1668,male,21,5,0,1,1,no,1,,harder,stable,12,14,7
101,1,8,365,17,1,9.80E-05,1668,male,21,5,0,1,1,no,1,,harder,stable,12,14,7
101,1,8,366,13,1,0.000184,1668,male,21,5,0,1,1,no,1,,harder,stable,12,14,7
101,1,8,367,33,1,0.13466,1668,male,21,5,0,1,1,no,1,,harder,stable,12,14,7
101,1,8,368,7,1,0.030874,1668,male,21,5,0,1,1,no,1,,harder,stable,12,14,7
101,1,8,369,9,1,0.000189,1668,male,21,5,0,1,1,no,1,,harder,stable,12,14,7
101,1,8,370,29,1,0.000184,1668,male,21,5,0,1,1,no,1,,harder,stable,12,14,7
101,1,8,371,22,1,0.51153,1668,male,21,5,0,1,1,no,1,,harder,stable,12,14,7
101,1,8,372,15,1,0.000153,1668,male,21,5,0,1,1,no,1,,harder,stable,12,14,7
101,1,8,373,29,1,0.000183,1668,male,21,5,0,1,1,no,1,,harder,stable,12,14,7
101,1,8,374,2,1,0.099469,1668,male,21,5,0,1,1,no,1,,harder,stable,12,14,7
101,1,8,375,23,1,0.11695,1668,male,21,5,0,1,1,no,1,,harder,stable,12,14,7
101,1,8,376,22,1,9.80E-05,1668,male,21,5,0,1,1,no,1,,harder,stable,12,14,7
101,1,8,377,26,1,0.000188,1668,male,21,5,0,1,1,no,1,,harder,stable,12,14,7
101,1,8,378,24,1,0.000186,1668,male,21,5,0,1,1,no,1,,harder,stable,12,14,7
101,1,8,379,15,1,0.63849,1668,male,21,5,0,1,1,no,1,,harder,stable,12,14,7
101,1,8,380,8,1,0.000188,1668,male,21,5,0,1,1,no,1,,harder,stable,12,14,7
101,1,8,381,7,1,0.000184,1668,male,21,5,0,1,1,no,1,,harder,stable,12,14,7
101,1,8,382,16,1,0.000183,1668,male,21,5,0,1,1,no,1,,harder,stable,12,14,7
101,1,8,383,29,1,0.000184,1668,male,21,5,0,1,1,no,1,,harder,stable,12,14,7
101,1,8,384,10,1,0.000185,1668,male,21,5,0,1,1,no,1,,harder,stable,12,14,7
101,1,8,385,20,1,1.6791,1668,male,21,5,0,1,1,no,1,,harder,stable,12,14,7
101,1,8,386,5,1,9.50E-05,1668,male,21,5,0,1,1,no,1,,harder,stable,12,14,7
101,1,8,387,1,1,0.000185,1668,male,21,5,0,1,1,no,1,,harder,stable,12,14,7
101,1,8,388,11,1,0.77874,1668,male,21,5,0,1,1,no,1,,harder,stable,12,14,7
101,1,8,389,23,1,0.000188,1668,male,21,5,0,1,1,no,1,,harder,stable,12,14,7
101,1,8,390,20,1,9.70E-05,1668,male,21,5,0,1,1,no,1,,harder,stable,12,14,7
101,1,8,391,3,1,0.083607,1668,male,21,5,0,1,1,no,1,,harder,stable,12,14,7
101,1,8,392,21,1,0.14973,1668,male,21,5,0,1,1,no,1,,harder,stable,12,14,7
101,1,8,393,13,1,0.000185,1668,male,21,5,0,1,1,no,1,,harder,stable,12,14,7
101,1,8,394,29,1,0.27529,1668,male,21,5,0,1,1,no,1,,harder,stable,12,14,7
101,1,8,395,2,1,0.00019,1668,male,21,5,0,1,1,no,1,,harder,stable,12,14,7
101,1,8,396,23,2,0.060175,1668,male,21,5,0,1,1,no,1,,harder,stable,12,14,7
101,1,8,397,12,1,0.048419,1668,male,21,5,0,1,1,no,1,,harder,stable,12,14,7
101,1,8,398,8,1,0.000189,1668,male,21,5,0,1,1,no,1,,harder,stable,12,14,7
101,1,8,399,59,2,0.000186,1668,male,21,5,0,1,1,no,1,,harder,stable,12,14,7
101,1,8,400,4,1,0.000184,1668,male,21,5,0,1,1,no,1,,harder,stable,12,14,7
101,1,8,401,1,1,0.000186,1668,male,21,5,0,1,1,no,1,,harder,stable,12,14,7
101,1,8,402,22,1,0.003737,1668,male,21,5,0,1,1,no,1,,harder,stable,12,14,7
101,1,8,403,8,1,0.000185,1668,male,21,5,0,1,1,no,1,,harder,stable,12,14,7
101,1,8,404,22,1,0.000186,1668,male,21,5,0,1,1,no,1,,harder,stable,12,14,7
101,1,8,405,13,1,0.000201,1668,male,21,5,0,1,1,no,1,,harder,stable,12,14,7
101,1,8,406,26,1,0.1791,1668,male,21,5,0,1,1,no,1,,harder,stable,12,14,7
101,1,8,407,28,1,0.31371,1668,male,21,5,0,1,1,no,1,,harder,stable,12,14,7
101,1,8,408,14,1,0.000184,1668,male,21,5,0,1,1,no,1,,harder,stable,12,14,7
101,1,8,409,26,1,9.50E-05,1668,male,21,5,0,1,1,no,1,,harder,stable,12,14,7
101,1,8,410,46,2,0.000186,1668,male,21,5,0,1,1,no,1,,harder,stable,12,14,7
101,1,9,411,24,1,0.022203,1668,male,21,5,0,1,1,no,1,,harder,stable,12,14,7
101,1,9,412,4,1,9.70E-05,1668,male,21,5,0,1,1,no,1,,harder,stable,12,14,7
101,1,9,413,26,1,0.000187,1668,male,21,5,0,1,1,no,1,,harder,stable,12,14,7
101,1,9,414,27,1,0.054425,1668,male,21,5,0,1,1,no,1,,harder,stable,12,14,7
101,1,9,415,3,1,0.000189,1668,male,21,5,0,1,1,no,1,,harder,stable,12,14,7
101,1,9,416,1,1,0.000148,1668,male,21,5,0,1,1,no,1,,harder,stable,12,14,7
101,1,9,417,26,1,9.60E-05,1668,male,21,5,0,1,1,no,1,,harder,stable,12,14,7
101,1,9,418,5,1,0.000183,1668,male,21,5,0,1,1,no,1,,harder,stable,12,14,7
101,1,9,419,32,1,0.088332,1668,male,21,5,0,1,1,no,1,,harder,stable,12,14,7
101,1,9,420,25,1,0.035155,1668,male,21,5,0,1,1,no,1,,harder,stable,12,14,7
101,1,9,421,8,1,0.81554,1668,male,21,5,0,1,1,no,1,,harder,stable,12,14,7
101,1,9,422,28,1,0.27625,1668,male,21,5,0,1,1,no,1,,harder,stable,12,14,7
101,1,9,423,22,1,0.19072,1668,male,21,5,0,1,1,no,1,,harder,stable,12,14,7
101,1,9,424,19,1,0.000187,1668,male,21,5,0,1,1,no,1,,harder,stable,12,14,7
101,1,9,425,16,1,0.000184,1668,male,21,5,0,1,1,no,1,,harder,stable,12,14,7
101,1,9,426,60,2,0.000639,1668,male,21,5,0,1,1,no,1,,harder,stable,12,14,7
101,1,9,427,1,1,0.000192,1668,male,21,5,0,1,1,no,1,,harder,stable,12,14,7
101,1,9,428,14,1,1.0358,1668,male,21,5,0,1,1,no,1,,harder,stable,12,14,7
101,1,9,429,10,1,0.014301,1668,male,21,5,0,1,1,no,1,,harder,stable,12,14,7
101,1,9,430,35,2,0.000183,1668,male,21,5,0,1,1,no,1,,harder,stable,12,14,7
101,1,9,431,16,1,0.00019,1668,male,21,5,0,1,1,no,1,,harder,stable,12,14,7
101,1,9,432,16,1,0.000188,1668,male,21,5,0,1,1,no,1,,harder,stable,12,14,7
101,1,9,433,10,1,1.8286,1668,male,21,5,0,1,1,no,1,,harder,stable,12,14,7
101,1,9,434,22,1,9.50E-05,1668,male,21,5,0,1,1,no,1,,harder,stable,12,14,7
101,1,9,435,10,1,9.70E-05,1668,male,21,5,0,1,1,no,1,,harder,stable,12,14,7
101,1,9,436,12,1,0.001566,1668,male,21,5,0,1,1,no,1,,harder,stable,12,14,7
101,1,9,437,3,1,0.90292,1668,male,21,5,0,1,1,no,1,,harder,stable,12,14,7
101,1,9,438,4,1,0.000188,1668,male,21,5,0,1,1,no,1,,harder,stable,12,14,7
101,1,9,439,20,1,1.5244,1668,male,21,5,0,1,1,no,1,,harder,stable,12,14,7
101,1,9,440,15,1,9.80E-05,1668,male,21,5,0,1,1,no,1,,harder,stable,12,14,7
101,1,9,441,5,1,1.9121,1668,male,21,5,0,1,1,no,1,,harder,stable,12,14,7
101,1,9,442,7,1,0.000188,1668,male,21,5,0,1,1,no,1,,harder,stable,12,14,7
101,1,9,443,22,1,0.000185,1668,male,21,5,0,1,1,no,1,,harder,stable,12,14,7
101,1,9,444,10,1,1.4255,1668,male,21,5,0,1,1,no,1,,harder,stable,12,14,7
101,1,9,445,6,1,1.3237,1668,male,21,5,0,1,1,no,1,,harder,stable,12,14,7
101,1,9,446,16,1,0.18622,1668,male,21,5,0,1,1,no,1,,harder,stable,12,14,7
101,1,9,447,11,1,0.27205,1668,male,21,5,0,1,1,no,1,,harder,stable,12,14,7
101,1,9,448,5,1,0.2985,1668,male,21,5,0,1,1,no,1,,harder,stable,12,14,7
101,1,9,449,6,1,0.55637,1668,male,21,5,0,1,1,no,1,,harder,stable,12,14,7
101,1,9,450,24,1,0.37945,1668,male,21,5,0,1,1,no,1,,harder,stable,12,14,7
101,1,9,451,28,2,0.20185,1668,male,21,5,0,1,1,no,1,,harder,stable,12,14,7
101,1,9,452,12,1,0.000187,1668,male,21,5,0,1,1,no,1,,harder,stable,12,14,7
101,1,9,453,22,1,0.000185,1668,male,21,5,0,1,1,no,1,,harder,stable,12,14,7
101,1,9,454,10,1,0.000183,1668,male,21,5,0,1,1,no,1,,harder,stable,12,14,7
101,1,9,455,12,1,0.000188,1668,male,21,5,0,1,1,no,1,,harder,stable,12,14,7
101,1,9,456,28,1,0.35035,1668,male,21,5,0,1,1,no,1,,harder,stable,12,14,7
101,1,9,457,15,1,0.000194,1668,male,21,5,0,1,1,no,1,,harder,stable,12,14,7
101,1,9,458,12,1,9.40E-05,1668,male,21,5,0,1,1,no,1,,harder,stable,12,14,7
101,1,9,459,25,1,0.1205,1668,male,21,5,0,1,1,no,1,,harder,stable,12,14,7
101,1,9,460,23,2,0.009214,1668,male,21,5,0,1,1,no,1,,harder,stable,12,14,7
101,1,10,461,22,1,0.09712,1668,male,21,5,0,1,1,no,1,,harder,stable,12,14,7
101,1,10,462,24,1,0.27514,1668,male,21,5,0,1,1,no,1,,harder,stable,12,14,7
101,1,10,463,17,1,0.26966,1668,male,21,5,0,1,1,no,1,,harder,stable,12,14,7
101,1,10,464,26,1,0.080156,1668,male,21,5,0,1,1,no,1,,harder,stable,12,14,7
101,1,10,465,5,1,1.6028,1668,male,21,5,0,1,1,no,1,,harder,stable,12,14,7
101,1,10,466,28,2,0.10226,1668,male,21,5,0,1,1,no,1,,harder,stable,12,14,7
101,1,10,467,17,1,0.82354,1668,male,21,5,0,1,1,no,1,,harder,stable,12,14,7
101,1,10,468,3,1,0.259,1668,male,21,5,0,1,1,no,1,,harder,stable,12,14,7
101,1,10,469,21,1,0.39001,1668,male,21,5,0,1,1,no,1,,harder,stable,12,14,7
101,1,10,470,36,2,0.38771,1668,male,21,5,0,1,1,no,1,,harder,stable,12,14,7
101,1,10,471,16,1,0.28913,1668,male,21,5,0,1,1,no,1,,harder,stable,12,14,7
101,1,10,472,20,1,0.32302,1668,male,21,5,0,1,1,no,1,,harder,stable,12,14,7
101,1,10,473,4,1,0.33934,1668,male,21,5,0,1,1,no,1,,harder,stable,12,14,7
101,1,10,474,22,2,0.53899,1668,male,21,5,0,1,1,no,1,,harder,stable,12,14,7
101,1,10,475,29,2,0.43482,1668,male,21,5,0,1,1,no,1,,harder,stable,12,14,7
101,1,10,476,11,1,0.000195,1668,male,21,5,0,1,1,no,1,,harder,stable,12,14,7
101,1,10,477,29,1,0.35616,1668,male,21,5,0,1,1,no,1,,harder,stable,12,14,7
101,1,10,478,11,1,0.25898,1668,male,21,5,0,1,1,no,1,,harder,stable,12,14,7
101,1,10,479,48,2,0.29414,1668,male,21,5,0,1,1,no,1,,harder,stable,12,14,7
101,1,10,480,13,1,0.000169,1668,male,21,5,0,1,1,no,1,,harder,stable,12,14,7
101,1,10,481,29,2,0.13359,1668,male,21,5,0,1,1,no,1,,harder,stable,12,14,7
101,1,10,482,14,1,0.000185,1668,male,21,5,0,1,1,no,1,,harder,stable,12,14,7
101,1,10,483,19,1,0.000183,1668,male,21,5,0,1,1,no,1,,harder,stable,12,14,7
101,1,10,484,26,1,0.2735,1668,male,21,5,0,1,1,no,1,,harder,stable,12,14,7
101,1,10,485,25,1,0.000189,1668,male,21,5,0,1,1,no,1,,harder,stable,12,14,7
101,1,10,486,24,1,0.074317,1668,male,21,5,0,1,1,no,1,,harder,stable,12,14,7
101,1,10,487,15,1,0.053177,1668,male,21,5,0,1,1,no,1,,harder,stable,12,14,7
101,1,10,488,28,1,0.009264,1668,male,21,5,0,1,1,no,1,,harder,stable,12,14,7
101,1,10,489,20,1,0.000189,1668,male,21,5,0,1,1,no,1,,harder,stable,12,14,7
101,1,10,490,15,1,0.012651,1668,male,21,5,0,1,1,no,1,,harder,stable,12,14,7
101,1,10,491,17,1,0.000184,1668,male,21,5,0,1,1,no,1,,harder,stable,12,14,7
101,1,10,492,5,1,0.000187,1668,male,21,5,0,1,1,no,1,,harder,stable,12,14,7
101,1,10,493,22,1,0.000185,1668,male,21,5,0,1,1,no,1,,harder,stable,12,14,7
101,1,10,494,12,1,0.000185,1668,male,21,5,0,1,1,no,1,,harder,stable,12,14,7
101,1,10,495,10,1,0.00019,1668,male,21,5,0,1,1,no,1,,harder,stable,12,14,7
101,1,10,496,21,1,0.000185,1668,male,21,5,0,1,1,no,1,,harder,stable,12,14,7
101,1,10,497,2,1,0.000188,1668,male,21,5,0,1,1,no,1,,harder,stable,12,14,7
101,1,10,498,16,1,0.23572,1668,male,21,5,0,1,1,no,1,,harder,stable,12,14,7
101,1,10,499,15,1,0.43155,1668,male,21,5,0,1,1,no,1,,harder,stable,12,14,7
101,1,10,500,25,1,0.000188,1668,male,21,5,0,1,1,no,1,,harder,stable,12,14,7
101,1,10,501,29,1,0.000187,1668,male,21,5,0,1,1,no,1,,harder,stable,12,14,7
101,1,10,502,5,1,0.000187,1668,male,21,5,0,1,1,no,1,,harder,stable,12,14,7
101,1,10,503,3,1,9.50E-05,1668,male,21,5,0,1,1,no,1,,harder,stable,12,14,7
101,1,10,504,21,1,0.14767,1668,male,21,5,0,1,1,no,1,,harder,stable,12,14,7
101,1,10,505,28,2,0.22757,1668,male,21,5,0,1,1,no,1,,harder,stable,12,14,7
101,1,10,506,24,1,0.24024,1668,male,21,5,0,1,1,no,1,,harder,stable,12,14,7
101,1,10,507,26,2,0.10796,1668,male,21,5,0,1,1,no,1,,harder,stable,12,14,7
101,1,10,508,12,1,0.73347,1668,male,21,5,0,1,1,no,1,,harder,stable,12,14,7
101,1,10,509,35,2,0.25315,1668,male,21,5,0,1,1,no,1,,harder,stable,12,14,7
101,1,10,510,29,1,0.000185,1668,male,21,5,0,1,1,no,1,,harder,stable,12,14,7
101,1,11,511,20,1,0.35056,1668,male,21,5,0,1,1,no,1,,harder,stable,12,14,7
101,1,11,512,27,1,0.34224,1668,male,21,5,0,1,1,no,1,,harder,stable,12,14,7
101,1,11,513,12,1,0.30191,1668,male,21,5,0,1,1,no,1,,harder,stable,12,14,7
101,1,11,514,27,1,0.46294,1668,male,21,5,0,1,1,no,1,,harder,stable,12,14,7
101,1,11,515,5,1,0.000185,1668,male,21,5,0,1,1,no,1,,harder,stable,12,14,7
101,1,11,516,29,2,0.29532,1668,male,21,5,0,1,1,no,1,,harder,stable,12,14,7
101,1,11,517,5,1,0.23309,1668,male,21,5,0,1,1,no,1,,harder,stable,12,14,7
101,1,11,518,26,2,0.47687,1668,male,21,5,0,1,1,no,1,,harder,stable,12,14,7
101,1,11,519,29,2,0.50318,1668,male,21,5,0,1,1,no,1,,harder,stable,12,14,7
101,1,11,520,4,1,0.000189,1668,male,21,5,0,1,1,no,1,,harder,stable,12,14,7
101,1,11,521,21,1,0.029885,1668,male,21,5,0,1,1,no,1,,harder,stable,12,14,7
101,1,11,522,2,1,0.000186,1668,male,21,5,0,1,1,no,1,,harder,stable,12,14,7
101,1,11,523,28,2,0.13655,1668,male,21,5,0,1,1,no,1,,harder,stable,12,14,7
101,1,11,524,24,2,0.024568,1668,male,21,5,0,1,1,no,1,,harder,stable,12,14,7
101,1,11,525,6,1,0.000101,1668,male,21,5,0,1,1,no,1,,harder,stable,12,14,7
101,1,11,526,33,2,0.000188,1668,male,21,5,0,1,1,no,1,,harder,stable,12,14,7
101,1,11,527,24,1,0.28078,1668,male,21,5,0,1,1,no,1,,harder,stable,12,14,7
101,1,11,528,8,1,0.000189,1668,male,21,5,0,1,1,no,1,,harder,stable,12,14,7
101,1,11,529,12,1,0.000187,1668,male,21,5,0,1,1,no,1,,harder,stable,12,14,7
101,1,11,530,21,1,0.000186,1668,male,21,5,0,1,1,no,1,,harder,stable,12,14,7
101,1,11,531,9,1,0.000186,1668,male,21,5,0,1,1,no,1,,harder,stable,12,14,7
101,1,11,532,51,2,0.17916,1668,male,21,5,0,1,1,no,1,,harder,stable,12,14,7
101,1,11,533,28,2,0.21843,1668,male,21,5,0,1,1,no,1,,harder,stable,12,14,7
101,1,11,534,27,2,0.42308,1668,male,21,5,0,1,1,no,1,,harder,stable,12,14,7
101,1,11,535,23,2,0.48311,1668,male,21,5,0,1,1,no,1,,harder,stable,12,14,7
101,1,11,536,7,1,0.38854,1668,male,21,5,0,1,1,no,1,,harder,stable,12,14,7
101,1,11,537,23,1,0.25877,1668,male,21,5,0,1,1,no,1,,harder,stable,12,14,7
101,1,11,538,26,1,0.41399,1668,male,21,5,0,1,1,no,1,,harder,stable,12,14,7
101,1,11,539,13,1,0.018788,1668,male,21,5,0,1,1,no,1,,harder,stable,12,14,7
101,1,11,540,11,1,0.000186,1668,male,21,5,0,1,1,no,1,,harder,stable,12,14,7
101,1,11,541,12,1,0.000187,1668,male,21,5,0,1,1,no,1,,harder,stable,12,14,7
101,1,11,542,23,2,0.35496,1668,male,21,5,0,1,1,no,1,,harder,stable,12,14,7
101,1,11,543,2,1,0.14596,1668,male,21,5,0,1,1,no,1,,harder,stable,12,14,7
101,1,11,544,8,1,0.018679,1668,male,21,5,0,1,1,no,1,,harder,stable,12,14,7
101,1,11,545,60,2,0.000141,1668,male,21,5,0,1,1,no,1,,harder,stable,12,14,7
101,1,11,546,1,1,0.000176,1668,male,21,5,0,1,1,no,1,,harder,stable,12,14,7
101,1,11,547,18,1,0.3628,1668,male,21,5,0,1,1,no,1,,harder,stable,12,14,7
101,1,11,548,11,1,0.43378,1668,male,21,5,0,1,1,no,1,,harder,stable,12,14,7
101,1,11,549,7,1,0.60528,1668,male,21,5,0,1,1,no,1,,harder,stable,12,14,7
101,1,11,550,21,1,0.000197,1668,male,21,5,0,1,1,no,1,,harder,stable,12,14,7
101,1,11,551,27,1,0.000189,1668,male,21,5,0,1,1,no,1,,harder,stable,12,14,7
101,1,11,552,19,1,0.012977,1668,male,21,5,0,1,1,no,1,,harder,stable,12,14,7
101,1,11,553,4,1,0.000187,1668,male,21,5,0,1,1,no,1,,harder,stable,12,14,7
101,1,11,554,4,1,0.000184,1668,male,21,5,0,1,1,no,1,,harder,stable,12,14,7
101,1,11,555,6,1,0.000184,1668,male,21,5,0,1,1,no,1,,harder,stable,12,14,7
101,1,11,556,13,1,0.000189,1668,male,21,5,0,1,1,no,1,,harder,stable,12,14,7
101,1,11,557,14,1,9.40E-05,1668,male,21,5,0,1,1,no,1,,harder,stable,12,14,7
101,1,11,558,16,1,0.048284,1668,male,21,5,0,1,1,no,1,,harder,stable,12,14,7
101,1,11,559,18,1,0.1324,1668,male,21,5,0,1,1,no,1,,harder,stable,12,14,7
101,1,11,560,6,1,0.000185,1668,male,21,5,0,1,1,no,1,,harder,stable,12,14,7
101,1,12,561,9,1,0.006602,1668,male,21,5,0,1,1,no,1,,harder,stable,12,14,7
101,1,12,562,20,1,0.000189,1668,male,21,5,0,1,1,no,1,,harder,stable,12,14,7
101,1,12,563,4,1,0.000189,1668,male,21,5,0,1,1,no,1,,harder,stable,12,14,7
101,1,12,564,27,2,0.024062,1668,male,21,5,0,1,1,no,1,,harder,stable,12,14,7
101,1,12,565,19,1,0.021208,1668,male,21,5,0,1,1,no,1,,harder,stable,12,14,7
101,1,12,566,2,1,0.000184,1668,male,21,5,0,1,1,no,1,,harder,stable,12,14,7
101,1,12,567,22,1,0.064277,1668,male,21,5,0,1,1,no,1,,harder,stable,12,14,7
101,1,12,568,27,1,0.48383,1668,male,21,5,0,1,1,no,1,,harder,stable,12,14,7
101,1,12,569,43,2,0.000186,1668,male,21,5,0,1,1,no,1,,harder,stable,12,14,7
101,1,12,570,29,2,0.051624,1668,male,21,5,0,1,1,no,1,,harder,stable,12,14,7
101,1,12,571,3,1,0.03916,1668,male,21,5,0,1,1,no,1,,harder,stable,12,14,7
101,1,12,572,13,1,0.000185,1668,male,21,5,0,1,1,no,1,,harder,stable,12,14,7
101,1,12,573,28,2,0.12112,1668,male,21,5,0,1,1,no,1,,harder,stable,12,14,7
101,1,12,574,1,1,0.000184,1668,male,21,5,0,1,1,no,1,,harder,stable,12,14,7
101,1,12,575,24,1,0.29538,1668,male,21,5,0,1,1,no,1,,harder,stable,12,14,7
101,1,12,576,24,1,0.36916,1668,male,21,5,0,1,1,no,1,,harder,stable,12,14,7
101,1,12,577,3,1,1.7833,1668,male,21,5,0,1,1,no,1,,harder,stable,12,14,7
101,1,12,578,5,1,9.50E-05,1668,male,21,5,0,1,1,no,1,,harder,stable,12,14,7
101,1,12,579,35,1,9.70E-05,1668,male,21,5,0,1,1,no,1,,harder,stable,12,14,7
101,1,12,580,8,1,0.000189,1668,male,21,5,0,1,1,no,1,,harder,stable,12,14,7
101,1,12,581,5,1,0.000186,1668,male,21,5,0,1,1,no,1,,harder,stable,12,14,7
101,1,12,582,8,1,0.00019,1668,male,21,5,0,1,1,no,1,,harder,stable,12,14,7
101,1,12,583,25,2,0.071818,1668,male,21,5,0,1,1,no,1,,harder,stable,12,14,7
101,1,12,584,29,2,9.50E-05,1668,male,21,5,0,1,1,no,1,,harder,stable,12,14,7
101,1,12,585,46,2,0.000185,1668,male,21,5,0,1,1,no,1,,harder,stable,12,14,7
101,1,12,586,20,1,0.053843,1668,male,21,5,0,1,1,no,1,,harder,stable,12,14,7
101,1,12,587,17,2,0.30539,1668,male,21,5,0,1,1,no,1,,harder,stable,12,14,7
101,1,12,588,8,1,0.000176,1668,male,21,5,0,1,1,no,1,,harder,stable,12,14,7
101,1,12,589,7,1,9.60E-05,1668,male,21,5,0,1,1,no,1,,harder,stable,12,14,7
101,1,12,590,17,1,0.08577,1668,male,21,5,0,1,1,no,1,,harder,stable,12,14,7
101,1,12,591,21,1,0.000185,1668,male,21,5,0,1,1,no,1,,harder,stable,12,14,7
101,1,12,592,17,1,0.11836,1668,male,21,5,0,1,1,no,1,,harder,stable,12,14,7
101,1,12,593,22,1,0.000185,1668,male,21,5,0,1,1,no,1,,harder,stable,12,14,7
101,1,12,594,27,2,0.15647,1668,male,21,5,0,1,1,no,1,,harder,stable,12,14,7
101,1,12,595,24,2,0.000114,1668,male,21,5,0,1,1,no,1,,harder,stable,12,14,7
101,1,12,596,1,1,0.6662,1668,male,21,5,0,1,1,no,1,,harder,stable,12,14,7
101,1,12,597,22,1,0.52522,1668,male,21,5,0,1,1,no,1,,harder,stable,12,14,7
101,1,12,598,17,1,0.000114,1668,male,21,5,0,1,1,no,1,,harder,stable,12,14,7
101,1,12,599,25,1,0.000187,1668,male,21,5,0,1,1,no,1,,harder,stable,12,14,7
101,1,12,600,2,1,0.000187,1668,male,21,5,0,1,1,no,1,,harder,stable,12,14,7
101,1,12,601,11,1,0.000184,1668,male,21,5,0,1,1,no,1,,harder,stable,12,14,7
101,1,12,602,23,1,0.7325,1668,male,21,5,0,1,1,no,1,,harder,stable,12,14,7
101,1,12,603,5,1,0.000186,1668,male,21,5,0,1,1,no,1,,harder,stable,12,14,7
101,1,12,604,14,1,0.000188,1668,male,21,5,0,1,1,no,1,,harder,stable,12,14,7
101,1,12,605,17,1,0.97605,1668,male,21,5,0,1,1,no,1,,harder,stable,12,14,7
101,1,12,606,16,1,0.24507,1668,male,21,5,0,1,1,no,1,,harder,stable,12,14,7
101,1,12,607,8,1,0.000191,1668,male,21,5,0,1,1,no,1,,harder,stable,12,14,7
101,1,12,608,10,1,0.000185,1668,male,21,5,0,1,1,no,1,,harder,stable,12,14,7
101,1,12,609,27,2,0.10016,1668,male,21,5,0,1,1,no,1,,harder,stable,12,14,7
101,1,12,610,23,2,0.26957,1668,male,21,5,0,1,1,no,1,,harder,stable,12,14,7
101,1,13,611,20,1,0.004179,1668,male,21,5,0,1,1,no,1,,harder,stable,12,14,7
101,1,13,612,27,2,0.12163,1668,male,21,5,0,1,1,no,1,,harder,stable,12,14,7
101,1,13,613,7,1,0.000184,1668,male,21,5,0,1,1,no,1,,harder,stable,12,14,7
101,1,13,614,27,2,0.50415,1668,male,21,5,0,1,1,no,1,,harder,stable,12,14,7
101,1,13,615,25,2,0.12133,1668,male,21,5,0,1,1,no,1,,harder,stable,12,14,7
101,1,13,616,5,1,0.010328,1668,male,21,5,0,1,1,no,1,,harder,stable,12,14,7
101,1,13,617,22,2,0.17643,1668,male,21,5,0,1,1,no,1,,harder,stable,12,14,7
101,1,13,618,24,1,0.38389,1668,male,21,5,0,1,1,no,1,,harder,stable,12,14,7
101,1,13,619,58,2,9.60E-05,1668,male,21,5,0,1,1,no,1,,harder,stable,12,14,7
101,1,13,620,29,2,0.043888,1668,male,21,5,0,1,1,no,1,,harder,stable,12,14,7
101,1,13,621,18,1,0.008124,1668,male,21,5,0,1,1,no,1,,harder,stable,12,14,7
101,1,13,622,11,1,0.000187,1668,male,21,5,0,1,1,no,1,,harder,stable,12,14,7
101,1,13,623,25,1,0.26725,1668,male,21,5,0,1,1,no,1,,harder,stable,12,14,7
101,1,13,624,20,1,0.28562,1668,male,21,5,0,1,1,no,1,,harder,stable,12,14,7
101,1,13,625,12,1,0.023445,1668,male,21,5,0,1,1,no,1,,harder,stable,12,14,7
101,1,13,626,9,1,0.000149,1668,male,21,5,0,1,1,no,1,,harder,stable,12,14,7
101,1,13,627,16,1,9.60E-05,1668,male,21,5,0,1,1,no,1,,harder,stable,12,14,7
101,1,13,628,2,1,0.00019,1668,male,21,5,0,1,1,no,1,,harder,stable,12,14,7
101,1,13,629,1,1,0.000187,1668,male,21,5,0,1,1,no,1,,harder,stable,12,14,7
101,1,13,630,25,1,0.25874,1668,male,21,5,0,1,1,no,1,,harder,stable,12,14,7
101,1,13,631,21,1,0.000188,1668,male,21,5,0,1,1,no,1,,harder,stable,12,14,7
101,1,13,632,28,1,0.25162,1668,male,21,5,0,1,1,no,1,,harder,stable,12,14,7
101,1,13,633,47,2,9.80E-05,1668,male,21,5,0,1,1,no,1,,harder,stable,12,14,7
101,1,13,634,9,1,0.000188,1668,male,21,5,0,1,1,no,1,,harder,stable,12,14,7
101,1,13,635,27,2,0.098,1668,male,21,5,0,1,1,no,1,,harder,stable,12,14,7
101,1,13,636,5,1,0.000187,1668,male,21,5,0,1,1,no,1,,harder,stable,12,14,7
101,1,13,637,15,1,0.000188,1668,male,21,5,0,1,1,no,1,,harder,stable,12,14,7
101,1,13,638,6,1,3.6319,1668,male,21,5,0,1,1,no,1,,harder,stable,12,14,7
101,1,13,639,27,1,0.40613,1668,male,21,5,0,1,1,no,1,,harder,stable,12,14,7
101,1,13,640,40,2,0.083707,1668,male,21,5,0,1,1,no,1,,harder,stable,12,14,7
101,1,13,641,18,1,0.005721,1668,male,21,5,0,1,1,no,1,,harder,stable,12,14,7
101,1,13,642,12,1,0.000188,1668,male,21,5,0,1,1,no,1,,harder,stable,12,14,7
101,1,13,643,2,1,0.000188,1668,male,21,5,0,1,1,no,1,,harder,stable,12,14,7
101,1,13,644,26,1,0.000193,1668,male,21,5,0,1,1,no,1,,harder,stable,12,14,7
101,1,13,645,15,1,0.029161,1668,male,21,5,0,1,1,no,1,,harder,stable,12,14,7
101,1,13,646,18,1,9.60E-05,1668,male,21,5,0,1,1,no,1,,harder,stable,12,14,7
101,1,13,647,5,1,0.00019,1668,male,21,5,0,1,1,no,1,,harder,stable,12,14,7
101,1,13,648,6,1,2.469,1668,male,21,5,0,1,1,no,1,,harder,stable,12,14,7
101,1,13,649,16,1,0.58879,1668,male,21,5,0,1,1,no,1,,harder,stable,12,14,7
101,1,13,650,18,1,0.000152,1668,male,21,5,0,1,1,no,1,,harder,stable,12,14,7
101,1,13,651,12,1,0.000156,1668,male,21,5,0,1,1,no,1,,harder,stable,12,14,7
101,1,13,652,21,1,0.061357,1668,male,21,5,0,1,1,no,1,,harder,stable,12,14,7
101,1,13,653,27,1,0.41681,1668,male,21,5,0,1,1,no,1,,harder,stable,12,14,7
101,1,13,654,23,1,0.000183,1668,male,21,5,0,1,1,no,1,,harder,stable,12,14,7
101,1,13,655,15,1,0.000153,1668,male,21,5,0,1,1,no,1,,harder,stable,12,14,7
101,1,13,656,10,1,1.1603,1668,male,21,5,0,1,1,no,1,,harder,stable,12,14,7
101,1,13,657,12,1,0.00019,1668,male,21,5,0,1,1,no,1,,harder,stable,12,14,7
101,1,13,658,8,1,0.00019,1668,male,21,5,0,1,1,no,1,,harder,stable,12,14,7
101,1,13,659,1,1,1.5775,1668,male,21,5,0,1,1,no,1,,harder,stable,12,14,7
101,1,13,660,8,1,0.000188,1668,male,21,5,0,1,1,no,1,,harder,stable,12,14,7
101,1,14,661,19,1,0.00014,1668,male,21,5,0,1,1,no,1,,harder,stable,12,14,7
101,1,14,662,11,1,0.000191,1668,male,21,5,0,1,1,no,1,,harder,stable,12,14,7
101,1,14,663,7,1,9.70E-05,1668,male,21,5,0,1,1,no,1,,harder,stable,12,14,7
101,1,14,664,19,2,0.000187,1668,male,21,5,0,1,1,no,1,,harder,stable,12,14,7
101,1,14,665,24,2,0.000182,1668,male,21,5,0,1,1,no,1,,harder,stable,12,14,7
101,1,14,666,21,2,1.9801,1668,male,21,5,0,1,1,no,1,,harder,stable,12,14,7
101,1,14,667,42,2,0.000174,1668,male,21,5,0,1,1,no,1,,harder,stable,12,14,7
101,1,14,668,4,1,0.021111,1668,male,21,5,0,1,1,no,1,,harder,stable,12,14,7
101,1,14,669,19,1,0.058719,1668,male,21,5,0,1,1,no,1,,harder,stable,12,14,7
101,1,14,670,24,1,0.054905,1668,male,21,5,0,1,1,no,1,,harder,stable,12,14,7
101,1,14,671,29,2,0.13121,1668,male,21,5,0,1,1,no,1,,harder,stable,12,14,7
101,1,14,672,12,1,0.000184,1668,male,21,5,0,1,1,no,1,,harder,stable,12,14,7
101,1,14,673,10,1,0.000188,1668,male,21,5,0,1,1,no,1,,harder,stable,12,14,7
101,1,14,674,19,1,0.000193,1668,male,21,5,0,1,1,no,1,,harder,stable,12,14,7
101,1,14,675,15,1,0.037509,1668,male,21,5,0,1,1,no,1,,harder,stable,12,14,7
101,1,14,676,23,1,0.00019,1668,male,21,5,0,1,1,no,1,,harder,stable,12,14,7
101,1,14,677,20,2,0.000188,1668,male,21,5,0,1,1,no,1,,harder,stable,12,14,7
101,1,14,678,27,2,0.000187,1668,male,21,5,0,1,1,no,1,,harder,stable,12,14,7
101,1,14,679,4,1,0.000193,1668,male,21,5,0,1,1,no,1,,harder,stable,12,14,7
101,1,14,680,4,1,0.000187,1668,male,21,5,0,1,1,no,1,,harder,stable,12,14,7
101,1,14,681,7,1,0.000193,1668,male,21,5,0,1,1,no,1,,harder,stable,12,14,7
101,1,14,682,3,1,0.00019,1668,male,21,5,0,1,1,no,1,,harder,stable,12,14,7
101,1,14,683,14,1,0.000181,1668,male,21,5,0,1,1,no,1,,harder,stable,12,14,7
101,1,14,684,33,2,1.64,1668,male,21,5,0,1,1,no,1,,harder,stable,12,14,7
101,1,14,685,11,1,0.000187,1668,male,21,5,0,1,1,no,1,,harder,stable,12,14,7
101,1,14,686,8,1,1.0308,1668,male,21,5,0,1,1,no,1,,harder,stable,12,14,7
101,1,14,687,5,1,0.000184,1668,male,21,5,0,1,1,no,1,,harder,stable,12,14,7
101,1,14,688,3,1,0.000188,1668,male,21,5,0,1,1,no,1,,harder,stable,12,14,7
101,1,14,689,8,1,0.000192,1668,male,21,5,0,1,1,no,1,,harder,stable,12,14,7
101,1,14,690,10,1,1.4432,1668,male,21,5,0,1,1,no,1,,harder,stable,12,14,7
101,1,14,691,14,1,0.000189,1668,male,21,5,0,1,1,no,1,,harder,stable,12,14,7
101,1,14,692,4,1,0.000188,1668,male,21,5,0,1,1,no,1,,harder,stable,12,14,7
101,1,14,693,10,1,0.000187,1668,male,21,5,0,1,1,no,1,,harder,stable,12,14,7
101,1,14,694,20,1,0.000189,1668,male,21,5,0,1,1,no,1,,harder,stable,12,14,7
101,1,14,695,18,1,0.000184,1668,male,21,5,0,1,1,no,1,,harder,stable,12,14,7
101,1,14,696,25,1,1.6745,1668,male,21,5,0,1,1,no,1,,harder,stable,12,14,7
101,1,14,697,15,1,0.11482,1668,male,21,5,0,1,1,no,1,,harder,stable,12,14,7
101,1,14,698,24,2,0.060428,1668,male,21,5,0,1,1,no,1,,harder,stable,12,14,7
101,1,14,699,26,2,0.000189,1668,male,21,5,0,1,1,no,1,,harder,stable,12,14,7
101,1,14,700,15,1,0.02145,1668,male,21,5,0,1,1,no,1,,harder,stable,12,14,7
101,1,14,701,3,1,9.70E-05,1668,male,21,5,0,1,1,no,1,,harder,stable,12,14,7
101,1,14,702,6,1,1.0239,1668,male,21,5,0,1,1,no,1,,harder,stable,12,14,7
101,1,14,703,29,2,0.000187,1668,male,21,5,0,1,1,no,1,,harder,stable,12,14,7
101,1,14,704,29,2,0.000184,1668,male,21,5,0,1,1,no,1,,harder,stable,12,14,7
101,1,14,705,13,1,0.11105,1668,male,21,5,0,1,1,no,1,,harder,stable,12,14,7
101,1,14,706,24,2,0.21654,1668,male,21,5,0,1,1,no,1,,harder,stable,12,14,7
101,1,14,707,19,2,0.24508,1668,male,21,5,0,1,1,no,1,,harder,stable,12,14,7
101,1,14,708,39,2,0.04091,1668,male,21,5,0,1,1,no,1,,harder,stable,12,14,7
101,1,14,709,28,2,0.000193,1668,male,21,5,0,1,1,no,1,,harder,stable,12,14,7
101,1,14,710,7,1,0.002788,1668,male,21,5,0,1,1,no,1,,harder,stable,12,14,7
101,1,15,711,14,1,0.000201,1668,male,21,5,0,1,1,no,1,,harder,stable,12,14,7
101,1,15,712,25,1,0.030529,1668,male,21,5,0,1,1,no,1,,harder,stable,12,14,7
101,1,15,713,15,1,1.1714,1668,male,21,5,0,1,1,no,1,,harder,stable,12,14,7
101,1,15,714,5,1,0.27216,1668,male,21,5,0,1,1,no,1,,harder,stable,12,14,7
101,1,15,715,28,2,0.000131,1668,male,21,5,0,1,1,no,1,,harder,stable,12,14,7
101,1,15,716,26,1,0.16025,1668,male,21,5,0,1,1,no,1,,harder,stable,12,14,7
101,1,15,717,15,1,0.055583,1668,male,21,5,0,1,1,no,1,,harder,stable,12,14,7
101,1,15,718,28,2,0.000153,1668,male,21,5,0,1,1,no,1,,harder,stable,12,14,7
101,1,15,719,25,2,0.48059,1668,male,21,5,0,1,1,no,1,,harder,stable,12,14,7
101,1,15,720,22,1,0.1388,1668,male,21,5,0,1,1,no,1,,harder,stable,12,14,7
101,1,15,721,20,1,0.10687,1668,male,21,5,0,1,1,no,1,,harder,stable,12,14,7
101,1,15,722,51,2,0.000189,1668,male,21,5,0,1,1,no,1,,harder,stable,12,14,7
101,1,15,723,10,1,9.40E-05,1668,male,21,5,0,1,1,no,1,,harder,stable,12,14,7
101,1,15,724,2,1,0.000197,1668,male,21,5,0,1,1,no,1,,harder,stable,12,14,7
101,1,15,725,20,1,0.005113,1668,male,21,5,0,1,1,no,1,,harder,stable,12,14,7
101,1,15,726,21,1,0.000184,1668,male,21,5,0,1,1,no,1,,harder,stable,12,14,7
101,1,15,727,34,2,0.000189,1668,male,21,5,0,1,1,no,1,,harder,stable,12,14,7
101,1,15,728,59,2,0.000193,1668,male,21,5,0,1,1,no,1,,harder,stable,12,14,7
101,1,15,729,3,1,0.000188,1668,male,21,5,0,1,1,no,1,,harder,stable,12,14,7
101,1,15,730,9,1,0.000186,1668,male,21,5,0,1,1,no,1,,harder,stable,12,14,7
101,1,15,731,6,1,9.60E-05,1668,male,21,5,0,1,1,no,1,,harder,stable,12,14,7
101,1,15,732,13,1,0.077953,1668,male,21,5,0,1,1,no,1,,harder,stable,12,14,7
101,1,15,733,23,1,0.016642,1668,male,21,5,0,1,1,no,1,,harder,stable,12,14,7
101,1,15,734,7,1,0.000187,1668,male,21,5,0,1,1,no,1,,harder,stable,12,14,7
101,1,15,735,4,1,1.1159,1668,male,21,5,0,1,1,no,1,,harder,stable,12,14,7
101,1,15,736,9,1,0.000145,1668,male,21,5,0,1,1,no,1,,harder,stable,12,14,7
101,1,15,737,7,1,0.000186,1668,male,21,5,0,1,1,no,1,,harder,stable,12,14,7
101,1,15,738,28,2,0.15884,1668,male,21,5,0,1,1,no,1,,harder,stable,12,14,7
101,1,15,739,8,1,9.60E-05,1668,male,21,5,0,1,1,no,1,,harder,stable,12,14,7
101,1,15,740,5,1,0.000196,1668,male,21,5,0,1,1,no,1,,harder,stable,12,14,7
101,1,15,741,15,1,0.000193,1668,male,21,5,0,1,1,no,1,,harder,stable,12,14,7
101,1,15,742,19,1,0.61496,1668,male,21,5,0,1,1,no,1,,harder,stable,12,14,7
101,1,15,743,25,1,0.11408,1668,male,21,5,0,1,1,no,1,,harder,stable,12,14,7
101,1,15,744,4,1,9.60E-05,1668,male,21,5,0,1,1,no,1,,harder,stable,12,14,7
101,1,15,745,29,2,0.030344,1668,male,21,5,0,1,1,no,1,,harder,stable,12,14,7
101,1,15,746,23,2,0.000183,1668,male,21,5,0,1,1,no,1,,harder,stable,12,14,7
101,1,15,747,21,2,1.7261,1668,male,21,5,0,1,1,no,1,,harder,stable,12,14,7
101,1,15,748,26,2,0.043109,1668,male,21,5,0,1,1,no,1,,harder,stable,12,14,7
101,1,15,749,27,2,1.8466,1668,male,21,5,0,1,1,no,1,,harder,stable,12,14,7
101,1,15,750,1,1,0.038072,1668,male,21,5,0,1,1,no,1,,harder,stable,12,14,7
101,1,15,751,15,1,0.064872,1668,male,21,5,0,1,1,no,1,,harder,stable,12,14,7
101,1,15,752,8,1,0.29961,1668,male,21,5,0,1,1,no,1,,harder,stable,12,14,7
101,1,15,753,18,1,0.075305,1668,male,21,5,0,1,1,no,1,,harder,stable,12,14,7
101,1,15,754,27,2,0.000188,1668,male,21,5,0,1,1,no,1,,harder,stable,12,14,7
101,1,15,755,2,1,0.000187,1668,male,21,5,0,1,1,no,1,,harder,stable,12,14,7
101,1,15,756,3,1,0.000191,1668,male,21,5,0,1,1,no,1,,harder,stable,12,14,7
101,1,15,757,3,1,0.000185,1668,male,21,5,0,1,1,no,1,,harder,stable,12,14,7
101,1,15,758,19,1,0.069648,1668,male,21,5,0,1,1,no,1,,harder,stable,12,14,7
101,1,15,759,27,2,0.015068,1668,male,21,5,0,1,1,no,1,,harder,stable,12,14,7
101,1,15,760,1,2,0.000182,1668,male,21,5,0,1,1,no,1,,harder,stable,12,14,7
101,1,16,761,18,1,9.50E-05,1668,male,21,5,0,1,1,no,1,,harder,stable,12,14,7
101,1,16,762,25,1,9.70E-05,1668,male,21,5,0,1,1,no,1,,harder,stable,12,14,7
101,1,16,763,26,1,1.0572,1668,male,21,5,0,1,1,no,1,,harder,stable,12,14,7
101,1,16,764,21,1,0.25745,1668,male,21,5,0,1,1,no,1,,harder,stable,12,14,7
101,1,16,765,8,1,0.29123,1668,male,21,5,0,1,1,no,1,,harder,stable,12,14,7
101,1,16,766,3,2,0.035621,1668,male,21,5,0,1,1,no,1,,harder,stable,12,14,7
101,1,16,767,25,1,0.39048,1668,male,21,5,0,1,1,no,1,,harder,stable,12,14,7
101,1,16,768,3,1,0.38659,1668,male,21,5,0,1,1,no,1,,harder,stable,12,14,7
101,1,16,769,6,1,0.37471,1668,male,21,5,0,1,1,no,1,,harder,stable,12,14,7
101,1,16,770,3,1,0.41158,1668,male,21,5,0,1,1,no,1,,harder,stable,12,14,7
101,1,16,771,56,2,0.094964,1668,male,21,5,0,1,1,no,1,,harder,stable,12,14,7
101,1,16,772,6,1,9.50E-05,1668,male,21,5,0,1,1,no,1,,harder,stable,12,14,7
101,1,16,773,13,1,0.02813,1668,male,21,5,0,1,1,no,1,,harder,stable,12,14,7
101,1,16,774,17,1,0.000197,1668,male,21,5,0,1,1,no,1,,harder,stable,12,14,7
101,1,16,775,15,1,0.000185,1668,male,21,5,0,1,1,no,1,,harder,stable,12,14,7
101,1,16,776,9,1,0.000187,1668,male,21,5,0,1,1,no,1,,harder,stable,12,14,7
101,1,16,777,19,1,0.000186,1668,male,21,5,0,1,1,no,1,,harder,stable,12,14,7
101,1,16,778,14,1,0.000188,1668,male,21,5,0,1,1,no,1,,harder,stable,12,14,7
101,1,16,779,21,1,0.000183,1668,male,21,5,0,1,1,no,1,,harder,stable,12,14,7
101,1,16,780,27,1,0.000185,1668,male,21,5,0,1,1,no,1,,harder,stable,12,14,7
101,1,16,781,6,1,1.4851,1668,male,21,5,0,1,1,no,1,,harder,stable,12,14,7
101,1,16,782,4,1,9.60E-05,1668,male,21,5,0,1,1,no,1,,harder,stable,12,14,7
101,1,16,783,15,1,9.50E-05,1668,male,21,5,0,1,1,no,1,,harder,stable,12,14,7
101,1,16,784,26,2,9.70E-05,1668,male,21,5,0,1,1,no,1,,harder,stable,12,14,7
101,1,16,785,11,1,9.70E-05,1668,male,21,5,0,1,1,no,1,,harder,stable,12,14,7
101,1,16,786,22,2,0.060188,1668,male,21,5,0,1,1,no,1,,harder,stable,12,14,7
101,1,16,787,23,2,0.24616,1668,male,21,5,0,1,1,no,1,,harder,stable,12,14,7
101,1,16,788,4,1,0.000189,1668,male,21,5,0,1,1,no,1,,harder,stable,12,14,7
101,1,16,789,8,1,0.000182,1668,male,21,5,0,1,1,no,1,,harder,stable,12,14,7
101,1,16,790,10,1,0.000135,1668,male,21,5,0,1,1,no,1,,harder,stable,12,14,7
101,1,16,791,31,2,0.029435,1668,male,21,5,0,1,1,no,1,,harder,stable,12,14,7
101,1,16,792,4,1,0.00019,1668,male,21,5,0,1,1,no,1,,harder,stable,12,14,7
101,1,16,793,58,2,0.000188,1668,male,21,5,0,1,1,no,1,,harder,stable,12,14,7
101,1,16,794,9,1,0.017407,1668,male,21,5,0,1,1,no,1,,harder,stable,12,14,7
101,1,16,795,29,2,0.052975,1668,male,21,5,0,1,1,no,1,,harder,stable,12,14,7
101,1,16,796,24,1,0.23913,1668,male,21,5,0,1,1,no,1,,harder,stable,12,14,7
101,1,16,797,17,1,0.000187,1668,male,21,5,0,1,1,no,1,,harder,stable,12,14,7
101,1,16,798,14,1,1.2297,1668,male,21,5,0,1,1,no,1,,harder,stable,12,14,7
101,1,16,799,13,1,0.000188,1668,male,21,5,0,1,1,no,1,,harder,stable,12,14,7
101,1,16,800,29,2,0.13118,1668,male,21,5,0,1,1,no,1,,harder,stable,12,14,7
101,1,16,801,15,1,0.000185,1668,male,21,5,0,1,1,no,1,,harder,stable,12,14,7
101,1,16,802,2,1,0.000183,1668,male,21,5,0,1,1,no,1,,harder,stable,12,14,7
101,1,16,803,10,1,0.000187,1668,male,21,5,0,1,1,no,1,,harder,stable,12,14,7
101,1,16,804,15,1,0.000185,1668,male,21,5,0,1,1,no,1,,harder,stable,12,14,7
101,1,16,805,18,1,0.000135,1668,male,21,5,0,1,1,no,1,,harder,stable,12,14,7
101,1,16,806,22,2,0.39174,1668,male,21,5,0,1,1,no,1,,harder,stable,12,14,7
101,1,16,807,15,1,0.027881,1668,male,21,5,0,1,1,no,1,,harder,stable,12,14,7
101,1,16,808,8,1,0.000187,1668,male,21,5,0,1,1,no,1,,harder,stable,12,14,7
101,1,16,809,19,1,0.000191,1668,male,21,5,0,1,1,no,1,,harder,stable,12,14,7
101,1,16,810,14,1,1.0878,1668,male,21,5,0,1,1,no,1,,harder,stable,12,14,7
102,1,0,1,45,1,0.94817,2003,male,23,3,0,1,1,no,1,,same,unsure,33,50,10
102,1,0,2,49,1,0.81168,2003,male,23,3,0,1,1,no,1,,same,unsure,33,50,10
102,1,0,3,29,1,0.75247,2003,male,23,3,0,1,1,no,1,,same,unsure,33,50,10
102,1,0,4,38,1,0.70256,2003,male,23,3,0,1,1,no,1,,same,unsure,33,50,10
102,1,0,5,41,1,0.57485,2003,male,23,3,0,1,1,no,1,,same,unsure,33,50,10
102,1,0,6,24,1,0.58872,2003,male,23,3,0,1,1,no,1,,same,unsure,33,50,10
102,1,0,7,28,1,0.75465,2003,male,23,3,0,1,1,no,1,,same,unsure,33,50,10
102,1,0,8,18,1,0.68959,2003,male,23,3,0,1,1,no,1,,same,unsure,33,50,10
102,1,0,9,44,1,0.78656,2003,male,23,3,0,1,1,no,1,,same,unsure,33,50,10
102,1,0,10,14,1,0.91932,2003,male,23,3,0,1,1,no,1,,same,unsure,33,50,10
102,1,1,11,43,1,0.49193,2003,male,23,3,0,1,1,no,1,,same,unsure,33,50,10
102,1,1,12,59,2,0.50932,2003,male,23,3,0,1,1,no,1,,same,unsure,33,50,10
102,1,1,13,35,1,0.44669,2003,male,23,3,0,1,1,no,1,,same,unsure,33,50,10
102,1,1,14,45,1,0.38688,2003,male,23,3,0,1,1,no,1,,same,unsure,33,50,10
102,1,1,15,8,1,0.5771,2003,male,23,3,0,1,1,no,1,,same,unsure,33,50,10
102,1,1,16,23,1,0.5678,2003,male,23,3,0,1,1,no,1,,same,unsure,33,50,10
102,1,1,17,3,1,0.59754,2003,male,23,3,0,1,1,no,1,,same,unsure,33,50,10
102,1,1,18,54,2,0.59533,2003,male,23,3,0,1,1,no,1,,same,unsure,33,50,10
102,1,1,19,18,1,0.39263,2003,male,23,3,0,1,1,no,1,,same,unsure,33,50,10
102,1,1,20,36,1,0.39019,2003,male,23,3,0,1,1,no,1,,same,unsure,33,50,10
102,1,1,21,15,1,0.46041,2003,male,23,3,0,1,1,no,1,,same,unsure,33,50,10
102,1,1,22,48,1,0.41522,2003,male,23,3,0,1,1,no,1,,same,unsure,33,50,10
102,1,1,23,56,2,0.42794,2003,male,23,3,0,1,1,no,1,,same,unsure,33,50,10
102,1,1,24,7,1,0.36083,2003,male,23,3,0,1,1,no,1,,same,unsure,33,50,10
102,1,1,25,4,1,0.38375,2003,male,23,3,0,1,1,no,1,,same,unsure,33,50,10
102,1,1,26,29,1,0.4221,2003,male,23,3,0,1,1,no,1,,same,unsure,33,50,10
102,1,1,27,2,1,0.38617,2003,male,23,3,0,1,1,no,1,,same,unsure,33,50,10
102,1,1,28,32,1,0.40051,2003,male,23,3,0,1,1,no,1,,same,unsure,33,50,10
102,1,1,29,60,2,0.2774,2003,male,23,3,0,1,1,no,1,,same,unsure,33,50,10
102,1,1,30,44,1,0.79985,2003,male,23,3,0,1,1,no,1,,same,unsure,33,50,10
102,1,1,31,41,1,0.89261,2003,male,23,3,0,1,1,no,1,,same,unsure,33,50,10
102,1,1,32,25,1,1.2858,2003,male,23,3,0,1,1,no,1,,same,unsure,33,50,10
102,1,1,33,52,2,0.43043,2003,male,23,3,0,1,1,no,1,,same,unsure,33,50,10
102,1,1,34,34,2,1.0346,2003,male,23,3,0,1,1,no,1,,same,unsure,33,50,10
102,1,1,35,51,2,0.59701,2003,male,23,3,0,1,1,no,1,,same,unsure,33,50,10
102,1,1,36,5,1,0.35481,2003,male,23,3,0,1,1,no,1,,same,unsure,33,50,10
102,1,1,37,49,2,0.60252,2003,male,23,3,0,1,1,no,1,,same,unsure,33,50,10
102,1,1,38,47,2,0.51093,2003,male,23,3,0,1,1,no,1,,same,unsure,33,50,10
102,1,1,39,42,1,1.0562,2003,male,23,3,0,1,1,no,1,,same,unsure,33,50,10
102,1,1,40,38,1,0.64194,2003,male,23,3,0,1,1,no,1,,same,unsure,33,50,10
102,1,1,41,22,1,0.45308,2003,male,23,3,0,1,1,no,1,,same,unsure,33,50,10
102,1,1,42,28,1,0.39982,2003,male,23,3,0,1,1,no,1,,same,unsure,33,50,10
102,1,1,43,11,1,0.34058,2003,male,23,3,0,1,1,no,1,,same,unsure,33,50,10
102,1,1,44,39,1,0.42814,2003,male,23,3,0,1,1,no,1,,same,unsure,33,50,10
102,1,1,45,55,2,0.48839,2003,male,23,3,0,1,1,no,1,,same,unsure,33,50,10
102,1,1,46,50,1,0.55376,2003,male,23,3,0,1,1,no,1,,same,unsure,33,50,10
102,1,1,47,30,1,0.56837,2003,male,23,3,0,1,1,no,1,,same,unsure,33,50,10
102,1,1,48,13,1,0.43822,2003,male,23,3,0,1,1,no,1,,same,unsure,33,50,10
102,1,1,49,57,2,0.4103,2003,male,23,3,0,1,1,no,1,,same,unsure,33,50,10
102,1,1,50,46,1,0.55924,2003,male,23,3,0,1,1,no,1,,same,unsure,33,50,10
102,1,1,51,1,1,0.64592,2003,male,23,3,0,1,1,no,1,,same,unsure,33,50,10
102,1,1,52,6,1,0.50492,2003,male,23,3,0,1,1,no,1,,same,unsure,33,50,10
102,1,1,53,19,1,0.51344,2003,male,23,3,0,1,1,no,1,,same,unsure,33,50,10
102,1,1,54,17,1,0.51491,2003,male,23,3,0,1,1,no,1,,same,unsure,33,50,10
102,1,1,55,16,1,0.51624,2003,male,23,3,0,1,1,no,1,,same,unsure,33,50,10
102,1,1,56,27,1,0.35625,2003,male,23,3,0,1,1,no,1,,same,unsure,33,50,10
102,1,1,57,21,1,0.45998,2003,male,23,3,0,1,1,no,1,,same,unsure,33,50,10
102,1,1,58,10,1,0.31067,2003,male,23,3,0,1,1,no,1,,same,unsure,33,50,10
102,1,1,59,24,1,0.19174,2003,male,23,3,0,1,1,no,1,,same,unsure,33,50,10
102,1,1,60,12,1,0.21355,2003,male,23,3,0,1,1,no,1,,same,unsure,33,50,10
102,1,2,61,52,2,0.50527,2003,male,23,3,0,1,1,no,1,,same,unsure,33,50,10
102,1,2,62,35,2,0.40195,2003,male,23,3,0,1,1,no,1,,same,unsure,33,50,10
102,1,2,63,30,2,0.47089,2003,male,23,3,0,1,1,no,1,,same,unsure,33,50,10
102,1,2,64,40,2,0.50554,2003,male,23,3,0,1,1,no,1,,same,unsure,33,50,10
102,1,2,65,8,1,0.46694,2003,male,23,3,0,1,1,no,1,,same,unsure,33,50,10
102,1,2,66,51,2,0.33374,2003,male,23,3,0,1,1,no,1,,same,unsure,33,50,10
102,1,2,67,57,2,0.43727,2003,male,23,3,0,1,1,no,1,,same,unsure,33,50,10
102,1,2,68,25,1,0.42551,2003,male,23,3,0,1,1,no,1,,same,unsure,33,50,10
102,1,2,69,60,2,0.41431,2003,male,23,3,0,1,1,no,1,,same,unsure,33,50,10
102,1,2,70,16,1,0.25975,2003,male,23,3,0,1,1,no,1,,same,unsure,33,50,10
102,1,2,71,26,1,0.49502,2003,male,23,3,0,1,1,no,1,,same,unsure,33,50,10
102,1,2,72,10,1,0.3524,2003,male,23,3,0,1,1,no,1,,same,unsure,33,50,10
102,1,2,73,3,1,0.26397,2003,male,23,3,0,1,1,no,1,,same,unsure,33,50,10
102,1,2,74,28,1,0.35523,2003,male,23,3,0,1,1,no,1,,same,unsure,33,50,10
102,1,2,75,6,1,0.21888,2003,male,23,3,0,1,1,no,1,,same,unsure,33,50,10
102,1,2,76,21,1,0.47946,2003,male,23,3,0,1,1,no,1,,same,unsure,33,50,10
102,1,2,77,9,1,0.39423,2003,male,23,3,0,1,1,no,1,,same,unsure,33,50,10
102,1,2,78,1,1,0.50453,2003,male,23,3,0,1,1,no,1,,same,unsure,33,50,10
102,1,2,79,22,1,0.53711,2003,male,23,3,0,1,1,no,1,,same,unsure,33,50,10
102,1,2,80,55,2,0.10511,2003,male,23,3,0,1,1,no,1,,same,unsure,33,50,10
102,1,2,81,11,1,9.80E-05,2003,male,23,3,0,1,1,no,1,,same,unsure,33,50,10
102,1,2,82,59,2,0.000273,2003,male,23,3,0,1,1,no,1,,same,unsure,33,50,10
102,1,2,83,46,2,0.55787,2003,male,23,3,0,1,1,no,1,,same,unsure,33,50,10
102,1,2,84,47,2,0.4444,2003,male,23,3,0,1,1,no,1,,same,unsure,33,50,10
102,1,2,85,41,2,0.33641,2003,male,23,3,0,1,1,no,1,,same,unsure,33,50,10
102,1,2,86,29,1,0.14428,2003,male,23,3,0,1,1,no,1,,same,unsure,33,50,10
102,1,2,87,45,1,0.48089,2003,male,23,3,0,1,1,no,1,,same,unsure,33,50,10
102,1,2,88,18,1,0.082944,2003,male,23,3,0,1,1,no,1,,same,unsure,33,50,10
102,1,2,89,19,1,0.44507,2003,male,23,3,0,1,1,no,1,,same,unsure,33,50,10
102,1,2,90,56,2,0.37658,2003,male,23,3,0,1,1,no,1,,same,unsure,33,50,10
102,1,2,91,48,2,0.31152,2003,male,23,3,0,1,1,no,1,,same,unsure,33,50,10
102,1,2,92,24,1,0.39244,2003,male,23,3,0,1,1,no,1,,same,unsure,33,50,10
102,1,2,93,37,1,0.44684,2003,male,23,3,0,1,1,no,1,,same,unsure,33,50,10
102,1,2,94,13,1,0.69032,2003,male,23,3,0,1,1,no,1,,same,unsure,33,50,10
102,1,2,95,32,1,0.7153,2003,male,23,3,0,1,1,no,1,,same,unsure,33,50,10
102,1,2,96,49,2,0.64359,2003,male,23,3,0,1,1,no,1,,same,unsure,33,50,10
102,1,2,97,53,2,0.65485,2003,male,23,3,0,1,1,no,1,,same,unsure,33,50,10
102,1,2,98,7,1,0.697,2003,male,23,3,0,1,1,no,1,,same,unsure,33,50,10
102,1,2,99,43,1,0.83461,2003,male,23,3,0,1,1,no,1,,same,unsure,33,50,10
102,1,2,100,54,2,0.68611,2003,male,23,3,0,1,1,no,1,,same,unsure,33,50,10
102,1,2,101,33,1,0.78301,2003,male,23,3,0,1,1,no,1,,same,unsure,33,50,10
102,1,2,102,27,1,0.38851,2003,male,23,3,0,1,1,no,1,,same,unsure,33,50,10
102,1,2,103,15,1,0.47406,2003,male,23,3,0,1,1,no,1,,same,unsure,33,50,10
102,1,2,104,14,1,0.34097,2003,male,23,3,0,1,1,no,1,,same,unsure,33,50,10
102,1,2,105,23,1,0.42039,2003,male,23,3,0,1,1,no,1,,same,unsure,33,50,10
102,1,2,106,20,1,0.56864,2003,male,23,3,0,1,1,no,1,,same,unsure,33,50,10
102,1,2,107,36,1,0.48725,2003,male,23,3,0,1,1,no,1,,same,unsure,33,50,10
102,1,2,108,42,1,0.59261,2003,male,23,3,0,1,1,no,1,,same,unsure,33,50,10
102,1,2,109,4,1,0.51777,2003,male,23,3,0,1,1,no,1,,same,unsure,33,50,10
102,1,2,110,39,1,0.58243,2003,male,23,3,0,1,1,no,1,,same,unsure,33,50,10
102,1,3,111,60,2,0.77261,2003,male,23,3,0,1,1,no,1,,same,unsure,33,50,10
102,1,3,112,43,2,0.58616,2003,male,23,3,0,1,1,no,1,,same,unsure,33,50,10
102,1,3,113,40,2,0.60004,2003,male,23,3,0,1,1,no,1,,same,unsure,33,50,10
102,1,3,114,26,1,0.75649,2003,male,23,3,0,1,1,no,1,,same,unsure,33,50,10
102,1,3,115,50,1,0.5154,2003,male,23,3,0,1,1,no,1,,same,unsure,33,50,10
102,1,3,116,42,1,0.54876,2003,male,23,3,0,1,1,no,1,,same,unsure,33,50,10
102,1,3,117,3,1,0.63602,2003,male,23,3,0,1,1,no,1,,same,unsure,33,50,10
102,1,3,118,15,1,0.68717,2003,male,23,3,0,1,1,no,1,,same,unsure,33,50,10
102,1,3,119,29,1,0.64084,2003,male,23,3,0,1,1,no,1,,same,unsure,33,50,10
102,1,3,120,20,1,0.59587,2003,male,23,3,0,1,1,no,1,,same,unsure,33,50,10
102,1,3,121,6,1,0.55296,2003,male,23,3,0,1,1,no,1,,same,unsure,33,50,10
102,1,3,122,53,2,0.46421,2003,male,23,3,0,1,1,no,1,,same,unsure,33,50,10
102,1,3,123,28,1,0.55509,2003,male,23,3,0,1,1,no,1,,same,unsure,33,50,10
102,1,3,124,21,1,0.59372,2003,male,23,3,0,1,1,no,1,,same,unsure,33,50,10
102,1,3,125,27,1,0.63141,2003,male,23,3,0,1,1,no,1,,same,unsure,33,50,10
102,1,3,126,10,1,0.51604,2003,male,23,3,0,1,1,no,1,,same,unsure,33,50,10
102,1,3,127,48,2,0.41196,2003,male,23,3,0,1,1,no,1,,same,unsure,33,50,10
102,1,3,128,31,2,0.76081,2003,male,23,3,0,1,1,no,1,,same,unsure,33,50,10
102,1,3,129,16,1,0.8071,2003,male,23,3,0,1,1,no,1,,same,unsure,33,50,10
102,1,3,130,9,2,0.57112,2003,male,23,3,0,1,1,no,1,,same,unsure,33,50,10
102,1,3,131,41,1,0.49771,2003,male,23,3,0,1,1,no,1,,same,unsure,33,50,10
102,1,3,132,39,1,0.5471,2003,male,23,3,0,1,1,no,1,,same,unsure,33,50,10
102,1,3,133,49,1,0.52224,2003,male,23,3,0,1,1,no,1,,same,unsure,33,50,10
102,1,3,134,17,1,0.52228,2003,male,23,3,0,1,1,no,1,,same,unsure,33,50,10
102,1,3,135,46,2,0.54625,2003,male,23,3,0,1,1,no,1,,same,unsure,33,50,10
102,1,3,136,59,2,0.6094,2003,male,23,3,0,1,1,no,1,,same,unsure,33,50,10
102,1,3,137,7,1,0.44666,2003,male,23,3,0,1,1,no,1,,same,unsure,33,50,10
102,1,3,138,5,1,0.52286,2003,male,23,3,0,1,1,no,1,,same,unsure,33,50,10
102,1,3,139,33,1,0.58679,2003,male,23,3,0,1,1,no,1,,same,unsure,33,50,10
102,1,3,140,38,1,0.56068,2003,male,23,3,0,1,1,no,1,,same,unsure,33,50,10
102,1,3,141,57,2,0.54325,2003,male,23,3,0,1,1,no,1,,same,unsure,33,50,10
102,1,3,142,14,2,0.55054,2003,male,23,3,0,1,1,no,1,,same,unsure,33,50,10
102,1,3,143,11,1,0.54914,2003,male,23,3,0,1,1,no,1,,same,unsure,33,50,10
102,1,3,144,54,1,0.57238,2003,male,23,3,0,1,1,no,1,,same,unsure,33,50,10
102,1,3,145,2,1,0.75494,2003,male,23,3,0,1,1,no,1,,same,unsure,33,50,10
102,1,3,146,23,1,0.65711,2003,male,23,3,0,1,1,no,1,,same,unsure,33,50,10
102,1,3,147,8,1,0.66027,2003,male,23,3,0,1,1,no,1,,same,unsure,33,50,10
102,1,3,148,35,1,0.67126,2003,male,23,3,0,1,1,no,1,,same,unsure,33,50,10
102,1,3,149,24,1,0.44894,2003,male,23,3,0,1,1,no,1,,same,unsure,33,50,10
102,1,3,150,45,2,0.62115,2003,male,23,3,0,1,1,no,1,,same,unsure,33,50,10
102,1,3,151,56,2,0.68093,2003,male,23,3,0,1,1,no,1,,same,unsure,33,50,10
102,1,3,152,18,1,0.55519,2003,male,23,3,0,1,1,no,1,,same,unsure,33,50,10
102,1,3,153,13,1,0.60192,2003,male,23,3,0,1,1,no,1,,same,unsure,33,50,10
102,1,3,154,12,1,0.60634,2003,male,23,3,0,1,1,no,1,,same,unsure,33,50,10
102,1,3,155,47,1,0.65083,2003,male,23,3,0,1,1,no,1,,same,unsure,33,50,10
102,1,3,156,1,1,0.66192,2003,male,23,3,0,1,1,no,1,,same,unsure,33,50,10
102,1,3,157,36,1,0.53698,2003,male,23,3,0,1,1,no,1,,same,unsure,33,50,10
102,1,3,158,58,2,0.59222,2003,male,23,3,0,1,1,no,1,,same,unsure,33,50,10
102,1,3,159,32,1,0.46943,2003,male,23,3,0,1,1,no,1,,same,unsure,33,50,10
102,1,3,160,55,2,0.57619,2003,male,23,3,0,1,1,no,1,,same,unsure,33,50,10
102,1,4,161,18,1,0.57856,2003,male,23,3,0,1,1,no,1,,same,unsure,33,50,10
102,1,4,162,49,1,0.61644,2003,male,23,3,0,1,1,no,1,,same,unsure,33,50,10
102,1,4,163,55,1,0.57223,2003,male,23,3,0,1,1,no,1,,same,unsure,33,50,10
102,1,4,164,19,1,0.54612,2003,male,23,3,0,1,1,no,1,,same,unsure,33,50,10
102,1,4,165,33,1,0.51331,2003,male,23,3,0,1,1,no,1,,same,unsure,33,50,10
102,1,4,166,45,1,0.91471,2003,male,23,3,0,1,1,no,1,,same,unsure,33,50,10
102,1,4,167,3,1,0.47472,2003,male,23,3,0,1,1,no,1,,same,unsure,33,50,10
102,1,4,168,4,1,0.70075,2003,male,23,3,0,1,1,no,1,,same,unsure,33,50,10
102,1,4,169,54,2,0.58966,2003,male,23,3,0,1,1,no,1,,same,unsure,33,50,10
102,1,4,170,42,2,0.68282,2003,male,23,3,0,1,1,no,1,,same,unsure,33,50,10
102,1,4,171,11,1,0.57308,2003,male,23,3,0,1,1,no,1,,same,unsure,33,50,10
102,1,4,172,9,1,0.59502,2003,male,23,3,0,1,1,no,1,,same,unsure,33,50,10
102,1,4,173,26,1,0.56021,2003,male,23,3,0,1,1,no,1,,same,unsure,33,50,10
102,1,4,174,57,2,0.53481,2003,male,23,3,0,1,1,no,1,,same,unsure,33,50,10
102,1,4,175,17,1,0.55808,2003,male,23,3,0,1,1,no,1,,same,unsure,33,50,10
102,1,4,176,51,2,2.0207,2003,male,23,3,0,1,1,no,1,,same,unsure,33,50,10
102,1,4,177,25,1,0.72633,2003,male,23,3,0,1,1,no,1,,same,unsure,33,50,10
102,1,4,178,48,2,0.47805,2003,male,23,3,0,1,1,no,1,,same,unsure,33,50,10
102,1,4,179,20,1,0.68826,2003,male,23,3,0,1,1,no,1,,same,unsure,33,50,10
102,1,4,180,7,1,0.51309,2003,male,23,3,0,1,1,no,1,,same,unsure,33,50,10
102,1,4,181,41,2,0.65043,2003,male,23,3,0,1,1,no,1,,same,unsure,33,50,10
102,1,4,182,34,2,0.9255,2003,male,23,3,0,1,1,no,1,,same,unsure,33,50,10
102,1,4,183,43,2,0.76544,2003,male,23,3,0,1,1,no,1,,same,unsure,33,50,10
102,1,4,184,16,1,0.4916,2003,male,23,3,0,1,1,no,1,,same,unsure,33,50,10
102,1,4,185,44,2,0.81298,2003,male,23,3,0,1,1,no,1,,same,unsure,33,50,10
102,1,4,186,31,1,3.2576,2003,male,23,3,0,1,1,no,1,,same,unsure,33,50,10
102,1,4,187,8,2,0.7919,2003,male,23,3,0,1,1,no,1,,same,unsure,33,50,10
102,1,4,188,12,1,0.47664,2003,male,23,3,0,1,1,no,1,,same,unsure,33,50,10
102,1,4,189,21,1,0.30339,2003,male,23,3,0,1,1,no,1,,same,unsure,33,50,10
102,1,4,190,38,1,0.59304,2003,male,23,3,0,1,1,no,1,,same,unsure,33,50,10
102,1,4,191,39,1,0.26314,2003,male,23,3,0,1,1,no,1,,same,unsure,33,50,10
102,1,4,192,1,1,0.89811,2003,male,23,3,0,1,1,no,1,,same,unsure,33,50,10
102,1,4,193,60,2,0.46735,2003,male,23,3,0,1,1,no,1,,same,unsure,33,50,10
102,1,4,194,28,1,0.43813,2003,male,23,3,0,1,1,no,1,,same,unsure,33,50,10
102,1,4,195,2,1,0.55377,2003,male,23,3,0,1,1,no,1,,same,unsure,33,50,10
102,1,4,196,5,1,0.000185,2003,male,23,3,0,1,1,no,1,,same,unsure,33,50,10
102,1,4,197,56,2,0.33527,2003,male,23,3,0,1,1,no,1,,same,unsure,33,50,10
102,1,4,198,6,1,0.351,2003,male,23,3,0,1,1,no,1,,same,unsure,33,50,10
102,1,4,199,14,1,0.20604,2003,male,23,3,0,1,1,no,1,,same,unsure,33,50,10
102,1,4,200,36,2,0.24384,2003,male,23,3,0,1,1,no,1,,same,unsure,33,50,10
102,1,4,201,37,2,0.31242,2003,male,23,3,0,1,1,no,1,,same,unsure,33,50,10
102,1,4,202,52,2,0.26545,2003,male,23,3,0,1,1,no,1,,same,unsure,33,50,10
102,1,4,203,46,2,0.31653,2003,male,23,3,0,1,1,no,1,,same,unsure,33,50,10
102,1,4,204,22,1,0.29366,2003,male,23,3,0,1,1,no,1,,same,unsure,33,50,10
102,1,4,205,23,1,0.36737,2003,male,23,3,0,1,1,no,1,,same,unsure,33,50,10
102,1,4,206,50,2,0.57429,2003,male,23,3,0,1,1,no,1,,same,unsure,33,50,10
102,1,4,207,24,1,0.4289,2003,male,23,3,0,1,1,no,1,,same,unsure,33,50,10
102,1,4,208,53,2,0.47306,2003,male,23,3,0,1,1,no,1,,same,unsure,33,50,10
102,1,4,209,40,2,0.34783,2003,male,23,3,0,1,1,no,1,,same,unsure,33,50,10
102,1,4,210,15,1,0.37148,2003,male,23,3,0,1,1,no,1,,same,unsure,33,50,10
102,1,5,211,15,1,0.40694,2003,male,23,3,0,1,1,no,1,,same,unsure,33,50,10
102,1,5,212,42,2,1.6763,2003,male,23,3,0,1,1,no,1,,same,unsure,33,50,10
102,1,5,213,56,2,0.55686,2003,male,23,3,0,1,1,no,1,,same,unsure,33,50,10
102,1,5,214,2,1,0.40414,2003,male,23,3,0,1,1,no,1,,same,unsure,33,50,10
102,1,5,215,26,1,0.43289,2003,male,23,3,0,1,1,no,1,,same,unsure,33,50,10
102,1,5,216,34,1,0.31718,2003,male,23,3,0,1,1,no,1,,same,unsure,33,50,10
102,1,5,217,36,1,0.39818,2003,male,23,3,0,1,1,no,1,,same,unsure,33,50,10
102,1,5,218,13,1,0.24446,2003,male,23,3,0,1,1,no,1,,same,unsure,33,50,10
102,1,5,219,12,1,0.20093,2003,male,23,3,0,1,1,no,1,,same,unsure,33,50,10
102,1,5,220,35,1,0.53498,2003,male,23,3,0,1,1,no,1,,same,unsure,33,50,10
102,1,5,221,58,2,0.24692,2003,male,23,3,0,1,1,no,1,,same,unsure,33,50,10
102,1,5,222,33,2,0.32282,2003,male,23,3,0,1,1,no,1,,same,unsure,33,50,10
102,1,5,223,3,2,0.2912,2003,male,23,3,0,1,1,no,1,,same,unsure,33,50,10
102,1,5,224,7,1,0.30956,2003,male,23,3,0,1,1,no,1,,same,unsure,33,50,10
102,1,5,225,14,1,0.33465,2003,male,23,3,0,1,1,no,1,,same,unsure,33,50,10
102,1,5,226,2,1,0.15032,2003,male,23,3,0,1,1,no,1,,same,unsure,33,50,10
102,1,5,227,14,1,0.34962,2003,male,23,3,0,1,1,no,1,,same,unsure,33,50,10
102,1,5,228,15,1,0.3414,2003,male,23,3,0,1,1,no,1,,same,unsure,33,50,10
102,1,5,229,8,1,0.30895,2003,male,23,3,0,1,1,no,1,,same,unsure,33,50,10
102,1,5,230,12,1,0.31,2003,male,23,3,0,1,1,no,1,,same,unsure,33,50,10
102,1,5,231,27,1,0.3677,2003,male,23,3,0,1,1,no,1,,same,unsure,33,50,10
102,1,5,232,23,1,0.32608,2003,male,23,3,0,1,1,no,1,,same,unsure,33,50,10
102,1,5,233,57,1,0.47109,2003,male,23,3,0,1,1,no,1,,same,unsure,33,50,10
102,1,5,234,7,1,0.44982,2003,male,23,3,0,1,1,no,1,,same,unsure,33,50,10
102,1,5,235,38,1,0.50858,2003,male,23,3,0,1,1,no,1,,same,unsure,33,50,10
102,1,5,236,27,1,0.42982,2003,male,23,3,0,1,1,no,1,,same,unsure,33,50,10
102,1,5,237,44,1,0.38689,2003,male,23,3,0,1,1,no,1,,same,unsure,33,50,10
102,1,5,238,48,1,0.37633,2003,male,23,3,0,1,1,no,1,,same,unsure,33,50,10
102,1,5,239,47,2,0.5025,2003,male,23,3,0,1,1,no,1,,same,unsure,33,50,10
102,1,5,240,3,1,0.43199,2003,male,23,3,0,1,1,no,1,,same,unsure,33,50,10
102,1,5,241,4,1,0.32412,2003,male,23,3,0,1,1,no,1,,same,unsure,33,50,10
102,1,5,242,18,1,0.18063,2003,male,23,3,0,1,1,no,1,,same,unsure,33,50,10
102,1,5,243,23,1,0.44405,2003,male,23,3,0,1,1,no,1,,same,unsure,33,50,10
102,1,5,244,59,2,0.34329,2003,male,23,3,0,1,1,no,1,,same,unsure,33,50,10
102,1,5,245,10,1,0.40701,2003,male,23,3,0,1,1,no,1,,same,unsure,33,50,10
102,1,5,246,22,1,0.40375,2003,male,23,3,0,1,1,no,1,,same,unsure,33,50,10
102,1,5,247,17,1,0.46478,2003,male,23,3,0,1,1,no,1,,same,unsure,33,50,10
102,1,5,248,27,1,0.2994,2003,male,23,3,0,1,1,no,1,,same,unsure,33,50,10
102,1,5,249,52,2,0.31647,2003,male,23,3,0,1,1,no,1,,same,unsure,33,50,10
102,1,5,250,51,2,0.22088,2003,male,23,3,0,1,1,no,1,,same,unsure,33,50,10
102,1,5,251,12,1,0.3614,2003,male,23,3,0,1,1,no,1,,same,unsure,33,50,10
102,1,5,252,2,1,0.44033,2003,male,23,3,0,1,1,no,1,,same,unsure,33,50,10
102,1,5,253,54,2,0.37976,2003,male,23,3,0,1,1,no,1,,same,unsure,33,50,10
102,1,5,254,31,1,0.53001,2003,male,23,3,0,1,1,no,1,,same,unsure,33,50,10
102,1,5,255,50,2,0.25003,2003,male,23,3,0,1,1,no,1,,same,unsure,33,50,10
102,1,5,256,30,1,0.38912,2003,male,23,3,0,1,1,no,1,,same,unsure,33,50,10
102,1,5,257,15,1,0.64271,2003,male,23,3,0,1,1,no,1,,same,unsure,33,50,10
102,1,5,258,41,2,0.46175,2003,male,23,3,0,1,1,no,1,,same,unsure,33,50,10
102,1,5,259,7,1,0.44058,2003,male,23,3,0,1,1,no,1,,same,unsure,33,50,10
102,1,5,260,11,1,0.41998,2003,male,23,3,0,1,1,no,1,,same,unsure,33,50,10
102,1,6,261,1,1,0.57291,2003,male,23,3,0,1,1,no,1,,same,unsure,33,50,10
102,1,6,262,45,2,0.51476,2003,male,23,3,0,1,1,no,1,,same,unsure,33,50,10
102,1,6,263,21,1,0.48328,2003,male,23,3,0,1,1,no,1,,same,unsure,33,50,10
102,1,6,264,50,2,0.41276,2003,male,23,3,0,1,1,no,1,,same,unsure,33,50,10
102,1,6,265,49,1,0.83361,2003,male,23,3,0,1,1,no,1,,same,unsure,33,50,10
102,1,6,266,53,2,0.6203,2003,male,23,3,0,1,1,no,1,,same,unsure,33,50,10
102,1,6,267,27,1,0.48808,2003,male,23,3,0,1,1,no,1,,same,unsure,33,50,10
102,1,6,268,22,1,0.45748,2003,male,23,3,0,1,1,no,1,,same,unsure,33,50,10
102,1,6,269,10,1,0.25232,2003,male,23,3,0,1,1,no,1,,same,unsure,33,50,10
102,1,6,270,10,1,0.000191,2003,male,23,3,0,1,1,no,1,,same,unsure,33,50,10
102,1,6,271,57,2,0.309,2003,male,23,3,0,1,1,no,1,,same,unsure,33,50,10
102,1,6,272,30,1,0.34215,2003,male,23,3,0,1,1,no,1,,same,unsure,33,50,10
102,1,6,273,9,1,0.40588,2003,male,23,3,0,1,1,no,1,,same,unsure,33,50,10
102,1,6,274,40,2,0.41045,2003,male,23,3,0,1,1,no,1,,same,unsure,33,50,10
102,1,6,275,41,2,0.43944,2003,male,23,3,0,1,1,no,1,,same,unsure,33,50,10
102,1,6,276,4,1,0.37885,2003,male,23,3,0,1,1,no,1,,same,unsure,33,50,10
102,1,6,277,11,1,0.78521,2003,male,23,3,0,1,1,no,1,,same,unsure,33,50,10
102,1,6,278,19,1,0.46199,2003,male,23,3,0,1,1,no,1,,same,unsure,33,50,10
102,1,6,279,37,1,0.20087,2003,male,23,3,0,1,1,no,1,,same,unsure,33,50,10
102,1,6,280,9,1,0.24608,2003,male,23,3,0,1,1,no,1,,same,unsure,33,50,10
102,1,6,281,35,1,0.23378,2003,male,23,3,0,1,1,no,1,,same,unsure,33,50,10
102,1,6,282,8,1,0.25363,2003,male,23,3,0,1,1,no,1,,same,unsure,33,50,10
102,1,6,283,12,1,0.31282,2003,male,23,3,0,1,1,no,1,,same,unsure,33,50,10
102,1,6,284,2,1,0.35379,2003,male,23,3,0,1,1,no,1,,same,unsure,33,50,10
102,1,6,285,29,1,0.38478,2003,male,23,3,0,1,1,no,1,,same,unsure,33,50,10
102,1,6,286,9,1,0.28638,2003,male,23,3,0,1,1,no,1,,same,unsure,33,50,10
102,1,6,287,6,1,0.40808,2003,male,23,3,0,1,1,no,1,,same,unsure,33,50,10
102,1,6,288,19,1,0.31682,2003,male,23,3,0,1,1,no,1,,same,unsure,33,50,10
102,1,6,289,20,1,0.43727,2003,male,23,3,0,1,1,no,1,,same,unsure,33,50,10
102,1,6,290,44,1,0.58463,2003,male,23,3,0,1,1,no,1,,same,unsure,33,50,10
102,1,6,291,13,1,0.39809,2003,male,23,3,0,1,1,no,1,,same,unsure,33,50,10
102,1,6,292,2,1,0.40347,2003,male,23,3,0,1,1,no,1,,same,unsure,33,50,10
102,1,6,293,20,1,0.47234,2003,male,23,3,0,1,1,no,1,,same,unsure,33,50,10
102,1,6,294,4,1,0.45117,2003,male,23,3,0,1,1,no,1,,same,unsure,33,50,10
102,1,6,295,11,1,0.42985,2003,male,23,3,0,1,1,no,1,,same,unsure,33,50,10
102,1,6,296,19,1,0.38605,2003,male,23,3,0,1,1,no,1,,same,unsure,33,50,10
102,1,6,297,17,1,0.42361,2003,male,23,3,0,1,1,no,1,,same,unsure,33,50,10
102,1,6,298,9,1,0.45996,2003,male,23,3,0,1,1,no,1,,same,unsure,33,50,10
102,1,6,299,60,2,0.31049,2003,male,23,3,0,1,1,no,1,,same,unsure,33,50,10
102,1,6,300,19,1,0.43952,2003,male,23,3,0,1,1,no,1,,same,unsure,33,50,10
102,1,6,301,59,2,0.33893,2003,male,23,3,0,1,1,no,1,,same,unsure,33,50,10
102,1,6,302,10,1,0.39454,2003,male,23,3,0,1,1,no,1,,same,unsure,33,50,10
102,1,6,303,25,1,0.46421,2003,male,23,3,0,1,1,no,1,,same,unsure,33,50,10
102,1,6,304,16,1,0.347,2003,male,23,3,0,1,1,no,1,,same,unsure,33,50,10
102,1,6,305,1,1,0.33054,2003,male,23,3,0,1,1,no,1,,same,unsure,33,50,10
102,1,6,306,32,1,0.64298,2003,male,23,3,0,1,1,no,1,,same,unsure,33,50,10
102,1,6,307,26,1,0.422,2003,male,23,3,0,1,1,no,1,,same,unsure,33,50,10
102,1,6,308,5,1,0.73019,2003,male,23,3,0,1,1,no,1,,same,unsure,33,50,10
102,1,6,309,29,1,0.32186,2003,male,23,3,0,1,1,no,1,,same,unsure,33,50,10
102,1,6,310,7,1,0.50619,2003,male,23,3,0,1,1,no,1,,same,unsure,33,50,10
102,1,7,311,23,1,0.97077,2003,male,23,3,0,1,1,no,1,,same,unsure,33,50,10
102,1,7,312,34,1,0.50386,2003,male,23,3,0,1,1,no,1,,same,unsure,33,50,10
102,1,7,313,5,1,0.55247,2003,male,23,3,0,1,1,no,1,,same,unsure,33,50,10
102,1,7,314,10,1,0.63103,2003,male,23,3,0,1,1,no,1,,same,unsure,33,50,10
102,1,7,315,6,1,0.48356,2003,male,23,3,0,1,1,no,1,,same,unsure,33,50,10
102,1,7,316,24,1,0.51691,2003,male,23,3,0,1,1,no,1,,same,unsure,33,50,10
102,1,7,317,15,1,0.54894,2003,male,23,3,0,1,1,no,1,,same,unsure,33,50,10
102,1,7,318,29,1,0.65213,2003,male,23,3,0,1,1,no,1,,same,unsure,33,50,10
102,1,7,319,3,1,0.44651,2003,male,23,3,0,1,1,no,1,,same,unsure,33,50,10
102,1,7,320,48,2,0.36194,2003,male,23,3,0,1,1,no,1,,same,unsure,33,50,10
102,1,7,321,9,1,0.46482,2003,male,23,3,0,1,1,no,1,,same,unsure,33,50,10
102,1,7,322,13,1,0.5398,2003,male,23,3,0,1,1,no,1,,same,unsure,33,50,10
102,1,7,323,8,1,0.57894,2003,male,23,3,0,1,1,no,1,,same,unsure,33,50,10
102,1,7,324,9,1,0.40083,2003,male,23,3,0,1,1,no,1,,same,unsure,33,50,10
102,1,7,325,4,1,0.50167,2003,male,23,3,0,1,1,no,1,,same,unsure,33,50,10
102,1,7,326,14,1,0.5351,2003,male,23,3,0,1,1,no,1,,same,unsure,33,50,10
102,1,7,327,49,2,0.47044,2003,male,23,3,0,1,1,no,1,,same,unsure,33,50,10
102,1,7,328,3,1,0.52035,2003,male,23,3,0,1,1,no,1,,same,unsure,33,50,10
102,1,7,329,22,1,0.008386,2003,male,23,3,0,1,1,no,1,,same,unsure,33,50,10
102,1,7,330,29,1,0.40614,2003,male,23,3,0,1,1,no,1,,same,unsure,33,50,10
102,1,7,331,29,1,0.31494,2003,male,23,3,0,1,1,no,1,,same,unsure,33,50,10
102,1,7,332,27,1,0.58784,2003,male,23,3,0,1,1,no,1,,same,unsure,33,50,10
102,1,7,333,25,1,0.31382,2003,male,23,3,0,1,1,no,1,,same,unsure,33,50,10
102,1,7,334,38,1,0.44284,2003,male,23,3,0,1,1,no,1,,same,unsure,33,50,10
102,1,7,335,21,1,0.52621,2003,male,23,3,0,1,1,no,1,,same,unsure,33,50,10
102,1,7,336,5,1,0.45496,2003,male,23,3,0,1,1,no,1,,same,unsure,33,50,10
102,1,7,337,6,1,0.44969,2003,male,23,3,0,1,1,no,1,,same,unsure,33,50,10
102,1,7,338,26,1,0.30848,2003,male,23,3,0,1,1,no,1,,same,unsure,33,50,10
102,1,7,339,3,1,0.35032,2003,male,23,3,0,1,1,no,1,,same,unsure,33,50,10
102,1,7,340,25,1,0.60583,2003,male,23,3,0,1,1,no,1,,same,unsure,33,50,10
102,1,7,341,12,1,0.59423,2003,male,23,3,0,1,1,no,1,,same,unsure,33,50,10
102,1,7,342,55,1,0.76741,2003,male,23,3,0,1,1,no,1,,same,unsure,33,50,10
102,1,7,343,50,1,0.66889,2003,male,23,3,0,1,1,no,1,,same,unsure,33,50,10
102,1,7,344,14,1,0.91865,2003,male,23,3,0,1,1,no,1,,same,unsure,33,50,10
102,1,7,345,8,1,0.55055,2003,male,23,3,0,1,1,no,1,,same,unsure,33,50,10
102,1,7,346,6,1,0.48523,2003,male,23,3,0,1,1,no,1,,same,unsure,33,50,10
102,1,7,347,36,1,0.75048,2003,male,23,3,0,1,1,no,1,,same,unsure,33,50,10
102,1,7,348,11,1,0.64476,2003,male,23,3,0,1,1,no,1,,same,unsure,33,50,10
102,1,7,349,25,1,0.68782,2003,male,23,3,0,1,1,no,1,,same,unsure,33,50,10
102,1,7,350,11,1,0.68878,2003,male,23,3,0,1,1,no,1,,same,unsure,33,50,10
102,1,7,351,12,1,0.62647,2003,male,23,3,0,1,1,no,1,,same,unsure,33,50,10
102,1,7,352,20,1,0.92692,2003,male,23,3,0,1,1,no,1,,same,unsure,33,50,10
102,1,7,353,29,1,0.53411,2003,male,23,3,0,1,1,no,1,,same,unsure,33,50,10
102,1,7,354,9,1,0.46137,2003,male,23,3,0,1,1,no,1,,same,unsure,33,50,10
102,1,7,355,14,1,0.46415,2003,male,23,3,0,1,1,no,1,,same,unsure,33,50,10
102,1,7,356,43,2,0.45881,2003,male,23,3,0,1,1,no,1,,same,unsure,33,50,10
102,1,7,357,18,1,0.40566,2003,male,23,3,0,1,1,no,1,,same,unsure,33,50,10
102,1,7,358,23,1,0.41054,2003,male,23,3,0,1,1,no,1,,same,unsure,33,50,10
102,1,7,359,27,1,0.16745,2003,male,23,3,0,1,1,no,1,,same,unsure,33,50,10
102,1,7,360,25,1,0.25406,2003,male,23,3,0,1,1,no,1,,same,unsure,33,50,10
102,1,8,361,16,1,0.74511,2003,male,23,3,0,1,1,no,1,,same,unsure,33,50,10
102,1,8,362,17,1,0.28812,2003,male,23,3,0,1,1,no,1,,same,unsure,33,50,10
102,1,8,363,5,1,0.15392,2003,male,23,3,0,1,1,no,1,,same,unsure,33,50,10
102,1,8,364,22,1,0.47323,2003,male,23,3,0,1,1,no,1,,same,unsure,33,50,10
102,1,8,365,24,1,0.59582,2003,male,23,3,0,1,1,no,1,,same,unsure,33,50,10
102,1,8,366,20,1,0.40108,2003,male,23,3,0,1,1,no,1,,same,unsure,33,50,10
102,1,8,367,29,1,0.32665,2003,male,23,3,0,1,1,no,1,,same,unsure,33,50,10
102,1,8,368,7,1,0.14308,2003,male,23,3,0,1,1,no,1,,same,unsure,33,50,10
102,1,8,369,17,1,0.83901,2003,male,23,3,0,1,1,no,1,,same,unsure,33,50,10
102,1,8,370,16,1,0.34643,2003,male,23,3,0,1,1,no,1,,same,unsure,33,50,10
102,1,8,371,14,1,0.21809,2003,male,23,3,0,1,1,no,1,,same,unsure,33,50,10
102,1,8,372,9,1,0.32663,2003,male,23,3,0,1,1,no,1,,same,unsure,33,50,10
102,1,8,373,12,1,0.4557,2003,male,23,3,0,1,1,no,1,,same,unsure,33,50,10
102,1,8,374,3,1,0.44254,2003,male,23,3,0,1,1,no,1,,same,unsure,33,50,10
102,1,8,375,28,2,0.42208,2003,male,23,3,0,1,1,no,1,,same,unsure,33,50,10
102,1,8,376,26,2,0.3301,2003,male,23,3,0,1,1,no,1,,same,unsure,33,50,10
102,1,8,377,20,1,0.37046,2003,male,23,3,0,1,1,no,1,,same,unsure,33,50,10
102,1,8,378,24,1,0.45741,2003,male,23,3,0,1,1,no,1,,same,unsure,33,50,10
102,1,8,379,19,1,0.38813,2003,male,23,3,0,1,1,no,1,,same,unsure,33,50,10
102,1,8,380,5,1,0.47438,2003,male,23,3,0,1,1,no,1,,same,unsure,33,50,10
102,1,8,381,17,1,0.000186,2003,male,23,3,0,1,1,no,1,,same,unsure,33,50,10
102,1,8,382,12,1,0.79476,2003,male,23,3,0,1,1,no,1,,same,unsure,33,50,10
102,1,8,383,13,1,0.28759,2003,male,23,3,0,1,1,no,1,,same,unsure,33,50,10
102,1,8,384,39,2,0.4734,2003,male,23,3,0,1,1,no,1,,same,unsure,33,50,10
102,1,8,385,18,1,0.79521,2003,male,23,3,0,1,1,no,1,,same,unsure,33,50,10
102,1,8,386,6,1,0.52004,2003,male,23,3,0,1,1,no,1,,same,unsure,33,50,10
102,1,8,387,25,1,0.48813,2003,male,23,3,0,1,1,no,1,,same,unsure,33,50,10
102,1,8,388,26,1,0.32151,2003,male,23,3,0,1,1,no,1,,same,unsure,33,50,10
102,1,8,389,20,1,0.46585,2003,male,23,3,0,1,1,no,1,,same,unsure,33,50,10
102,1,8,390,1,1,0.22794,2003,male,23,3,0,1,1,no,1,,same,unsure,33,50,10
102,1,8,391,9,1,0.56037,2003,male,23,3,0,1,1,no,1,,same,unsure,33,50,10
102,1,8,392,28,1,0.49505,2003,male,23,3,0,1,1,no,1,,same,unsure,33,50,10
102,1,8,393,28,1,0.64842,2003,male,23,3,0,1,1,no,1,,same,unsure,33,50,10
102,1,8,394,7,1,0.32359,2003,male,23,3,0,1,1,no,1,,same,unsure,33,50,10
102,1,8,395,10,1,0.48387,2003,male,23,3,0,1,1,no,1,,same,unsure,33,50,10
102,1,8,396,14,1,0.38919,2003,male,23,3,0,1,1,no,1,,same,unsure,33,50,10
102,1,8,397,8,1,0.64277,2003,male,23,3,0,1,1,no,1,,same,unsure,33,50,10
102,1,8,398,3,1,0.44591,2003,male,23,3,0,1,1,no,1,,same,unsure,33,50,10
102,1,8,399,10,1,0.31321,2003,male,23,3,0,1,1,no,1,,same,unsure,33,50,10
102,1,8,400,12,1,0.37912,2003,male,23,3,0,1,1,no,1,,same,unsure,33,50,10
102,1,8,401,7,1,0.33738,2003,male,23,3,0,1,1,no,1,,same,unsure,33,50,10
102,1,8,402,17,1,0.38503,2003,male,23,3,0,1,1,no,1,,same,unsure,33,50,10
102,1,8,403,28,1,0.51055,2003,male,23,3,0,1,1,no,1,,same,unsure,33,50,10
102,1,8,404,16,1,0.55992,2003,male,23,3,0,1,1,no,1,,same,unsure,33,50,10
102,1,8,405,29,1,0.51851,2003,male,23,3,0,1,1,no,1,,same,unsure,33,50,10
102,1,8,406,49,2,0.5664,2003,male,23,3,0,1,1,no,1,,same,unsure,33,50,10
102,1,8,407,56,2,0.30042,2003,male,23,3,0,1,1,no,1,,same,unsure,33,50,10
102,1,8,408,17,1,0.2934,2003,male,23,3,0,1,1,no,1,,same,unsure,33,50,10
102,1,8,409,22,1,0.28712,2003,male,23,3,0,1,1,no,1,,same,unsure,33,50,10
102,1,8,410,9,1,0.25686,2003,male,23,3,0,1,1,no,1,,same,unsure,33,50,10
102,1,9,411,10,1,0.42942,2003,male,23,3,0,1,1,no,1,,same,unsure,33,50,10
102,1,9,412,7,1,0.28951,2003,male,23,3,0,1,1,no,1,,same,unsure,33,50,10
102,1,9,413,46,2,0.2673,2003,male,23,3,0,1,1,no,1,,same,unsure,33,50,10
102,1,9,414,6,1,0.48582,2003,male,23,3,0,1,1,no,1,,same,unsure,33,50,10
102,1,9,415,14,1,0.33515,2003,male,23,3,0,1,1,no,1,,same,unsure,33,50,10
102,1,9,416,2,1,0.3347,2003,male,23,3,0,1,1,no,1,,same,unsure,33,50,10
102,1,9,417,6,1,0.31027,2003,male,23,3,0,1,1,no,1,,same,unsure,33,50,10
102,1,9,418,28,1,0.28744,2003,male,23,3,0,1,1,no,1,,same,unsure,33,50,10
102,1,9,419,24,1,0.17707,2003,male,23,3,0,1,1,no,1,,same,unsure,33,50,10
102,1,9,420,3,1,0.37576,2003,male,23,3,0,1,1,no,1,,same,unsure,33,50,10
102,1,9,421,56,2,0.37403,2003,male,23,3,0,1,1,no,1,,same,unsure,33,50,10
102,1,9,422,3,1,0.3724,2003,male,23,3,0,1,1,no,1,,same,unsure,33,50,10
102,1,9,423,24,1,0.33063,2003,male,23,3,0,1,1,no,1,,same,unsure,33,50,10
102,1,9,424,10,1,0.42759,2003,male,23,3,0,1,1,no,1,,same,unsure,33,50,10
102,1,9,425,6,1,0.37568,2003,male,23,3,0,1,1,no,1,,same,unsure,33,50,10
102,1,9,426,10,1,0.29401,2003,male,23,3,0,1,1,no,1,,same,unsure,33,50,10
102,1,9,427,10,1,0.23171,2003,male,23,3,0,1,1,no,1,,same,unsure,33,50,10
102,1,9,428,11,1,0.30036,2003,male,23,3,0,1,1,no,1,,same,unsure,33,50,10
102,1,9,429,23,1,0.29342,2003,male,23,3,0,1,1,no,1,,same,unsure,33,50,10
102,1,9,430,2,1,0.27183,2003,male,23,3,0,1,1,no,1,,same,unsure,33,50,10
102,1,9,431,3,1,0.33018,2003,male,23,3,0,1,1,no,1,,same,unsure,33,50,10
102,1,9,432,24,1,0.4266,2003,male,23,3,0,1,1,no,1,,same,unsure,33,50,10
102,1,9,433,4,1,0.35087,2003,male,23,3,0,1,1,no,1,,same,unsure,33,50,10
102,1,9,434,19,1,0.63855,2003,male,23,3,0,1,1,no,1,,same,unsure,33,50,10
102,1,9,435,29,1,0.3935,2003,male,23,3,0,1,1,no,1,,same,unsure,33,50,10
102,1,9,436,39,2,0.43909,2003,male,23,3,0,1,1,no,1,,same,unsure,33,50,10
102,1,9,437,27,2,0.50655,2003,male,23,3,0,1,1,no,1,,same,unsure,33,50,10
102,1,9,438,12,2,0.48324,2003,male,23,3,0,1,1,no,1,,same,unsure,33,50,10
102,1,9,439,28,2,0.40459,2003,male,23,3,0,1,1,no,1,,same,unsure,33,50,10
102,1,9,440,14,1,0.64945,2003,male,23,3,0,1,1,no,1,,same,unsure,33,50,10
102,1,9,441,19,1,0.47654,2003,male,23,3,0,1,1,no,1,,same,unsure,33,50,10
102,1,9,442,3,1,0.4713,2003,male,23,3,0,1,1,no,1,,same,unsure,33,50,10
102,1,9,443,2,1,0.33735,2003,male,23,3,0,1,1,no,1,,same,unsure,33,50,10
102,1,9,444,3,1,0.39292,2003,male,23,3,0,1,1,no,1,,same,unsure,33,50,10
102,1,9,445,29,2,0.63052,2003,male,23,3,0,1,1,no,1,,same,unsure,33,50,10
102,1,9,446,14,1,0.45902,2003,male,23,3,0,1,1,no,1,,same,unsure,33,50,10
102,1,9,447,20,1,0.35781,2003,male,23,3,0,1,1,no,1,,same,unsure,33,50,10
102,1,9,448,11,1,0.46147,2003,male,23,3,0,1,1,no,1,,same,unsure,33,50,10
102,1,9,449,9,1,0.43222,2003,male,23,3,0,1,1,no,1,,same,unsure,33,50,10
102,1,9,450,15,1,0.4211,2003,male,23,3,0,1,1,no,1,,same,unsure,33,50,10
102,1,9,451,2,1,0.52924,2003,male,23,3,0,1,1,no,1,,same,unsure,33,50,10
102,1,9,452,21,1,0.56109,2003,male,23,3,0,1,1,no,1,,same,unsure,33,50,10
102,1,9,453,25,1,0.63976,2003,male,23,3,0,1,1,no,1,,same,unsure,33,50,10
102,1,9,454,29,2,0.49074,2003,male,23,3,0,1,1,no,1,,same,unsure,33,50,10
102,1,9,455,14,1,0.3962,2003,male,23,3,0,1,1,no,1,,same,unsure,33,50,10
102,1,9,456,5,1,0.68174,2003,male,23,3,0,1,1,no,1,,same,unsure,33,50,10
102,1,9,457,9,1,0.51542,2003,male,23,3,0,1,1,no,1,,same,unsure,33,50,10
102,1,9,458,2,1,0.47612,2003,male,23,3,0,1,1,no,1,,same,unsure,33,50,10
102,1,9,459,1,1,0.28627,2003,male,23,3,0,1,1,no,1,,same,unsure,33,50,10
102,1,9,460,15,1,0.34446,2003,male,23,3,0,1,1,no,1,,same,unsure,33,50,10
102,1,10,461,26,1,0.80012,2003,male,23,3,0,1,1,no,1,,same,unsure,33,50,10
102,1,10,462,27,1,0.48492,2003,male,23,3,0,1,1,no,1,,same,unsure,33,50,10
102,1,10,463,21,1,0.27838,2003,male,23,3,0,1,1,no,1,,same,unsure,33,50,10
102,1,10,464,7,1,0.24066,2003,male,23,3,0,1,1,no,1,,same,unsure,33,50,10
102,1,10,465,19,1,0.20531,2003,male,23,3,0,1,1,no,1,,same,unsure,33,50,10
102,1,10,466,28,1,0.15515,2003,male,23,3,0,1,1,no,1,,same,unsure,33,50,10
102,1,10,467,8,1,0.33064,2003,male,23,3,0,1,1,no,1,,same,unsure,33,50,10
102,1,10,468,16,1,0.002974,2003,male,23,3,0,1,1,no,1,,same,unsure,33,50,10
102,1,10,469,14,1,0.16063,2003,male,23,3,0,1,1,no,1,,same,unsure,33,50,10
102,1,10,470,6,1,0.42398,2003,male,23,3,0,1,1,no,1,,same,unsure,33,50,10
102,1,10,471,27,1,0.084101,2003,male,23,3,0,1,1,no,1,,same,unsure,33,50,10
102,1,10,472,17,1,0.14291,2003,male,23,3,0,1,1,no,1,,same,unsure,33,50,10
102,1,10,473,11,1,0.16684,2003,male,23,3,0,1,1,no,1,,same,unsure,33,50,10
102,1,10,474,15,1,0.30947,2003,male,23,3,0,1,1,no,1,,same,unsure,33,50,10
102,1,10,475,29,1,0.26265,2003,male,23,3,0,1,1,no,1,,same,unsure,33,50,10
102,1,10,476,12,1,0.29786,2003,male,23,3,0,1,1,no,1,,same,unsure,33,50,10
102,1,10,477,15,1,0.22755,2003,male,23,3,0,1,1,no,1,,same,unsure,33,50,10
102,1,10,478,27,1,0.26409,2003,male,23,3,0,1,1,no,1,,same,unsure,33,50,10
102,1,10,479,34,1,0.41191,2003,male,23,3,0,1,1,no,1,,same,unsure,33,50,10
102,1,10,480,10,1,0.43274,2003,male,23,3,0,1,1,no,1,,same,unsure,33,50,10
102,1,10,481,23,1,0.30105,2003,male,23,3,0,1,1,no,1,,same,unsure,33,50,10
102,1,10,482,25,1,0.38986,2003,male,23,3,0,1,1,no,1,,same,unsure,33,50,10
102,1,10,483,15,1,0.69227,2003,male,23,3,0,1,1,no,1,,same,unsure,33,50,10
102,1,10,484,33,1,0.35717,2003,male,23,3,0,1,1,no,1,,same,unsure,33,50,10
102,1,10,485,24,1,0.54818,2003,male,23,3,0,1,1,no,1,,same,unsure,33,50,10
102,1,10,486,2,1,0.77143,2003,male,23,3,0,1,1,no,1,,same,unsure,33,50,10
102,1,10,487,1,1,0.43364,2003,male,23,3,0,1,1,no,1,,same,unsure,33,50,10
102,1,10,488,27,1,0.66107,2003,male,23,3,0,1,1,no,1,,same,unsure,33,50,10
102,1,10,489,14,1,0.47141,2003,male,23,3,0,1,1,no,1,,same,unsure,33,50,10
102,1,10,490,18,1,0.45755,2003,male,23,3,0,1,1,no,1,,same,unsure,33,50,10
102,1,10,491,9,1,0.40427,2003,male,23,3,0,1,1,no,1,,same,unsure,33,50,10
102,1,10,492,10,1,0.36112,2003,male,23,3,0,1,1,no,1,,same,unsure,33,50,10
102,1,10,493,20,1,0.44007,2003,male,23,3,0,1,1,no,1,,same,unsure,33,50,10
102,1,10,494,29,1,0.41964,2003,male,23,3,0,1,1,no,1,,same,unsure,33,50,10
102,1,10,495,19,1,0.57583,2003,male,23,3,0,1,1,no,1,,same,unsure,33,50,10
102,1,10,496,18,1,0.3256,2003,male,23,3,0,1,1,no,1,,same,unsure,33,50,10
102,1,10,497,20,1,0.55064,2003,male,23,3,0,1,1,no,1,,same,unsure,33,50,10
102,1,10,498,2,1,0.70926,2003,male,23,3,0,1,1,no,1,,same,unsure,33,50,10
102,1,10,499,26,1,0.73364,2003,male,23,3,0,1,1,no,1,,same,unsure,33,50,10
102,1,10,500,5,1,0.54041,2003,male,23,3,0,1,1,no,1,,same,unsure,33,50,10
102,1,10,501,5,1,0.61235,2003,male,23,3,0,1,1,no,1,,same,unsure,33,50,10
102,1,10,502,19,1,0.47284,2003,male,23,3,0,1,1,no,1,,same,unsure,33,50,10
102,1,10,503,13,1,0.291,2003,male,23,3,0,1,1,no,1,,same,unsure,33,50,10
102,1,10,504,11,1,0.51666,2003,male,23,3,0,1,1,no,1,,same,unsure,33,50,10
102,1,10,505,23,1,0.4526,2003,male,23,3,0,1,1,no,1,,same,unsure,33,50,10
102,1,10,506,22,1,0.57546,2003,male,23,3,0,1,1,no,1,,same,unsure,33,50,10
102,1,10,507,6,1,0.58992,2003,male,23,3,0,1,1,no,1,,same,unsure,33,50,10
102,1,10,508,1,1,0.46709,2003,male,23,3,0,1,1,no,1,,same,unsure,33,50,10
102,1,10,509,51,2,0.47715,2003,male,23,3,0,1,1,no,1,,same,unsure,33,50,10
102,1,10,510,10,1,0.79133,2003,male,23,3,0,1,1,no,1,,same,unsure,33,50,10
102,1,11,511,16,1,0.51286,2003,male,23,3,0,1,1,no,1,,same,unsure,33,50,10
102,1,11,512,12,1,0.25756,2003,male,23,3,0,1,1,no,1,,same,unsure,33,50,10
102,1,11,513,36,1,0.000147,2003,male,23,3,0,1,1,no,1,,same,unsure,33,50,10
102,1,11,514,20,1,0.27434,2003,male,23,3,0,1,1,no,1,,same,unsure,33,50,10
102,1,11,515,25,1,0.34888,2003,male,23,3,0,1,1,no,1,,same,unsure,33,50,10
102,1,11,516,21,1,0.25254,2003,male,23,3,0,1,1,no,1,,same,unsure,33,50,10
102,1,11,517,29,1,0.2396,2003,male,23,3,0,1,1,no,1,,same,unsure,33,50,10
102,1,11,518,2,1,0.13138,2003,male,23,3,0,1,1,no,1,,same,unsure,33,50,10
102,1,11,519,28,1,0.37228,2003,male,23,3,0,1,1,no,1,,same,unsure,33,50,10
102,1,11,520,16,1,0.30639,2003,male,23,3,0,1,1,no,1,,same,unsure,33,50,10
102,1,11,521,58,2,0.42743,2003,male,23,3,0,1,1,no,1,,same,unsure,33,50,10
102,1,11,522,29,1,0.33633,2003,male,23,3,0,1,1,no,1,,same,unsure,33,50,10
102,1,11,523,2,1,0.51996,2003,male,23,3,0,1,1,no,1,,same,unsure,33,50,10
102,1,11,524,14,1,0.37603,2003,male,23,3,0,1,1,no,1,,same,unsure,33,50,10
